SubID	SessionDate	Trial	TargetColor	Response	Correct	RT	leftTargetLetter	rightTargetLetter	leftColors	rightColors	TOA	Mask	SOA	Blocked3	22-May-16	1	blue	k	1	0.6388	C	D	b	r	2000	1	6	13	22-May-16	2	blue	s	1	0.5751	C	B	r	b	2000	1	6	13	22-May-16	3	blue	l	1	0.5589	D	C	b	r	2000	1	6	13	22-May-16	4	blue	s	1	0.6315	B	C	b	r	2000	1	6	13	22-May-16	5	blue	a	1	0.6963	C	A	r	b	2000	1	6	13	22-May-16	6	blue	s	0	0.6313	C	B	b	r	2000	1	6	13	22-May-16	7	blue	a	1	0.601	D	A	r	b	2000	1	6	13	22-May-16	8	blue	l	1	0.4797	A	D	r	b	2000	1	6	13	22-May-16	9	blue	s	0	0.6799	A	C	r	b	2000	1	6	13	22-May-16	10	blue	a	1	0.5534	A	B	b	r	2000	1	6	13	22-May-16	11	blue	s	1	0.7283	C	B	r	b	2000	1	6	13	22-May-16	12	blue	k	1	0.6175	C	D	b	r	2000	1	6	13	22-May-16	13	blue	a	1	0.5459	B	A	r	b	2000	1	6	13	22-May-16	14	blue	k	1	0.744	C	D	b	r	2000	1	6	13	22-May-16	15	blue	s	1	0.7216	C	B	r	b	2000	1	6	13	22-May-16	16	blue	a	1	0.6335	A	C	b	r	2000	1	6	13	22-May-16	17	blue	s	1	0.6895	B	D	b	r	2000	1	6	13	22-May-16	18	blue	a	1	0.6666	D	A	r	b	2000	1	6	13	22-May-16	19	blue	s	1	0.7065	C	B	r	b	2000	1	6	13	22-May-16	20	blue	l	1	0.7941	C	D	r	b	2000	1	6	13	22-May-16	21	blue	l	1	0.7465	D	C	b	r	2000	1	6	13	22-May-16	22	blue	s	0	0.6358	D	C	r	b	2000	1	6	13	22-May-16	23	blue	k	1	0.8433	D	C	r	b	2000	1	6	13	22-May-16	24	blue	k	1	0.5872	C	D	b	r	2000	1	6	13	22-May-16	25	blue	a	1	0.5318	A	C	b	r	2000	1	6	13	22-May-16	26	blue	l	1	0.5325	A	D	r	b	2000	1	6	13	22-May-16	27	blue	s	1	0.5872	B	D	b	r	2000	1	6	13	22-May-16	28	blue	l	1	0.5866	A	D	r	b	2000	1	6	13	22-May-16	29	blue	s	1	0.5706	B	D	b	r	2000	1	6	13	22-May-16	30	blue	l	1	0.4364	C	D	r	b	2000	1	6	13	22-May-16	31	blue	l	1	0.5168	A	D	r	b	2000	1	6	13	22-May-16	32	blue	a	1	0.4754	A	B	b	r	2000	1	6	13	22-May-16	1	Red	s	1	0.8675	B	D	r	b	2000	1	6	13	22-May-16	2	Red	s	1	0.574	B	D	r	b	2000	1	6	13	22-May-16	3	Red	s	1	0.5821	C	B	b	r	2000	1	6	13	22-May-16	4	Red	s	1	0.55	B	D	r	b	2000	1	6	13	22-May-16	5	Red	s	1	0.4306	B	C	r	b	2000	1	6	13	22-May-16	6	Red	k	1	0.6624	C	B	r	b	2000	1	6	13	22-May-16	7	Red	l	1	0.5101	C	D	b	r	2000	1	6	13	22-May-16	8	Red	a	1	0.5984	A	B	r	b	2000	1	6	13	22-May-16	9	Red	a	1	0.5338	C	A	b	r	2000	1	6	13	22-May-16	10	Red	s	1	0.7584	B	D	r	b	2000	1	6	13	22-May-16	11	Red	k	1	0.9333	B	C	b	r	2000	1	6	13	22-May-16	12	Red	l	1	0.8055	B	D	b	r	2000	1	6	13	22-May-16	13	Red	NaN	99	0	B	A	b	r	2000	1	6	13	22-May-16	14	Red	s	0	0.8441	D	C	b	r	2000	1	6	13	22-May-16	15	Red	a	1	0.5549	B	A	b	r	2000	1	6	13	22-May-16	16	Red	a	1	0.5324	D	A	b	r	2000	1	6	13	22-May-16	17	Red	s	1	0.5877	A	B	b	r	2000	1	6	13	22-May-16	18	Red	a	1	0.5154	A	D	r	b	2000	1	6	13	22-May-16	19	Red	k	1	0.7323	A	C	b	r	2000	1	6	13	22-May-16	20	Red	k	1	0.5879	B	C	b	r	2000	1	6	13	22-May-16	21	Red	k	1	0.5387	C	D	r	b	2000	1	6	13	22-May-16	22	Red	a	1	0.5407	D	A	b	r	2000	1	6	13	22-May-16	23	Red	l	1	0.6847	D	C	r	b	2000	1	6	13	22-May-16	24	Red	k	1	0.7075	C	A	r	b	2000	1	6	13	22-May-16	25	Red	l	1	0.5572	C	D	b	r	2000	1	6	13	22-May-16	26	Red	l	0	0.5012	C	D	r	b	2000	1	6	13	22-May-16	27	Red	l	1	0.5397	C	D	b	r	2000	1	6	13	22-May-16	28	Red	l	1	0.5174	D	A	r	b	2000	1	6	13	22-May-16	29	Red	a	1	0.5325	D	A	b	r	2000	1	6	13	22-May-16	30	Red	l	1	0.6202	B	D	b	r	2000	1	6	13	22-May-16	31	Red	s	1	0.5804	A	B	b	r	2000	1	6	13	22-May-16	32	Red	l	1	0.5342	D	C	r	b	2000	1	6	13	22-May-16	1	blue	a	1	0.7014	C	A	r	b	2000	1	6	13	22-May-16	2	blue	a	1	0.5804	A	B	b	r	2000	1	6	13	22-May-16	3	blue	s	1	0.6524	B	D	b	r	2000	1	6	13	22-May-16	4	blue	a	1	0.5239	A	B	b	r	2000	1	6	13	22-May-16	5	blue	k	1	0.7154	C	A	b	r	2000	1	6	13	22-May-16	6	blue	k	1	0.5326	B	C	r	b	2000	1	6	13	22-May-16	7	blue	s	1	0.7325	D	B	r	b	2000	1	6	13	22-May-16	8	blue	k	0	0.5715	A	B	r	b	2000	1	6	13	22-May-16	9	blue	a	1	0.5416	A	D	b	r	2000	1	6	13	22-May-16	10	blue	l	1	0.6204	A	D	r	b	2000	1	6	13	22-May-16	11	blue	l	1	0.7015	D	B	b	r	2000	1	6	13	22-May-16	12	blue	l	1	0.581	D	C	b	r	2000	1	6	13	22-May-16	13	blue	a	1	0.5406	A	B	b	r	2000	1	6	13	22-May-16	14	blue	a	1	0.4624	A	B	b	r	2000	1	6	13	22-May-16	15	blue	l	1	0.6221	D	A	b	r	2000	1	6	13	22-May-16	16	blue	s	1	0.9729	C	B	r	b	2000	1	6	13	22-May-16	17	blue	k	1	1.4945	C	A	b	r	2000	1	6	13	22-May-16	18	blue	a	1	0.6546	A	B	b	r	2000	1	6	13	22-May-16	19	blue	a	1	0.5407	A	B	b	r	2000	1	6	13	22-May-16	20	blue	k	1	0.6212	C	B	b	r	2000	1	6	13	22-May-16	21	blue	k	1	0.4852	C	A	b	r	2000	1	6	13	22-May-16	22	blue	l	1	0.6058	A	D	r	b	2000	1	6	13	22-May-16	23	blue	s	1	0.5352	B	C	b	r	2000	1	6	13	22-May-16	24	blue	k	0	0.5108	B	A	b	r	2000	1	6	13	22-May-16	25	blue	s	1	0.6464	A	B	r	b	2000	1	6	13	22-May-16	26	blue	l	1	0.5431	D	B	b	r	2000	1	6	13	22-May-16	27	blue	l	1	0.6298	A	D	r	b	2000	1	6	13	22-May-16	28	blue	s	0	0.6306	D	C	r	b	2000	1	6	13	22-May-16	29	blue	k	1	0.7025	C	B	b	r	2000	1	6	13	22-May-16	30	blue	s	1	0.7438	D	B	r	b	2000	1	6	13	22-May-16	31	blue	k	1	0.7904	A	C	r	b	2000	1	6	13	22-May-16	32	blue	l	1	0.7035	C	D	r	b	2000	1	6	13	22-May-16	1	Red	s	1	0.8342	A	B	b	r	2000	1	6	13	22-May-16	2	Red	l	1	0.5779	D	A	r	b	2000	1	6	13	22-May-16	3	Red	k	1	0.8273	C	D	r	b	2000	1	6	13	22-May-16	4	Red	a	1	0.4907	A	C	r	b	2000	1	6	13	22-May-16	5	Red	s	1	0.5223	D	B	b	r	2000	1	6	13	22-May-16	6	Red	s	1	0.6276	A	B	b	r	2000	1	6	13	22-May-16	7	Red	a	1	0.5947	C	A	b	r	2000	1	6	13	22-May-16	8	Red	l	1	0.4285	A	D	b	r	2000	1	6	13	22-May-16	9	Red	k	1	0.6046	C	A	r	b	2000	1	6	13	22-May-16	10	Red	l	1	0.5408	C	D	b	r	2000	1	6	13	22-May-16	11	Red	l	1	0.6513	D	B	r	b	2000	1	6	13	22-May-16	12	Red	l	1	0.6278	A	D	b	r	2000	1	6	13	22-May-16	13	Red	a	1	0.5652	A	C	r	b	2000	1	6	13	22-May-16	14	Red	k	1	0.6997	B	C	b	r	2000	1	6	13	22-May-16	15	Red	s	1	0.5477	D	B	b	r	2000	1	6	13	22-May-16	16	Red	l	1	0.5803	D	C	r	b	2000	1	6	13	22-May-16	17	Red	k	0	0.5571	B	C	r	b	2000	1	6	13	22-May-16	18	Red	s	1	0.613	A	B	b	r	2000	1	6	13	22-May-16	19	Red	k	1	0.708	B	C	b	r	2000	1	6	13	22-May-16	20	Red	k	1	0.5562	A	C	b	r	2000	1	6	13	22-May-16	21	Red	a	1	0.6852	A	B	r	b	2000	1	6	13	22-May-16	22	Red	a	1	0.7161	B	A	b	r	2000	1	6	13	22-May-16	23	Red	a	1	0.5499	A	B	r	b	2000	1	6	13	22-May-16	24	Red	a	1	0.5728	D	A	b	r	2000	1	6	13	22-May-16	25	Red	k	0	0.5411	D	A	r	b	2000	1	6	13	22-May-16	26	Red	k	1	0.6288	C	D	r	b	2000	1	6	13	22-May-16	27	Red	k	1	0.75	D	C	b	r	2000	1	6	13	22-May-16	28	Red	s	1	0.789	B	D	r	b	2000	1	6	13	22-May-16	29	Red	a	1	0.7407	A	B	r	b	2000	1	6	13	22-May-16	30	Red	k	1	0.6772	C	D	r	b	2000	1	6	13	22-May-16	31	Red	s	1	0.6461	B	C	r	b	2000	1	6	13	22-May-16	32	Red	l	1	0.4854	C	D	b	r	2000	1	6	13	22-May-16	1	blue	l	1	0.5632	A	D	r	b	900	1	6	13	22-May-16	2	blue	a	1	0.5936	A	B	b	r	900	1	6	13	22-May-16	3	blue	l	1	0.5533	D	B	b	r	900	1	6	13	22-May-16	4	blue	k	1	0.5916	C	B	b	r	900	1	6	13	22-May-16	5	blue	a	1	0.5348	A	C	b	r	900	1	6	13	22-May-16	6	blue	k	1	0.5185	C	D	b	r	900	1	6	13	22-May-16	7	blue	l	1	0.4942	B	D	r	b	900	1	6	13	22-May-16	8	blue	l	1	0.5255	D	C	b	r	900	1	6	13	22-May-16	9	blue	a	1	0.4931	A	D	b	r	900	1	6	13	22-May-16	10	blue	k	0	0.4991	A	B	r	b	900	1	6	13	22-May-16	11	blue	s	1	0.6593	B	C	b	r	900	1	6	13	22-May-16	12	blue	k	1	0.5309	C	D	b	r	900	1	6	13	22-May-16	13	blue	s	1	0.5692	B	D	b	r	900	1	6	13	22-May-16	14	blue	k	1	0.5918	A	C	r	b	900	1	6	13	22-May-16	15	blue	s	1	0.6868	D	B	r	b	900	1	6	13	22-May-16	16	blue	k	1	0.7341	B	C	r	b	900	1	6	13	22-May-16	17	blue	a	1	0.5725	A	B	b	r	900	1	6	13	22-May-16	18	blue	k	1	0.8453	D	C	r	b	900	1	6	13	22-May-16	19	blue	l	1	0.5571	B	D	r	b	900	1	6	13	22-May-16	20	blue	l	1	0.4926	C	D	r	b	900	1	6	13	22-May-16	21	blue	k	1	0.6515	A	C	r	b	900	1	6	13	22-May-16	22	blue	a	1	0.723	A	C	b	r	900	1	6	13	22-May-16	23	blue	a	1	0.6899	A	B	b	r	900	1	6	13	22-May-16	24	blue	k	0	0.6239	D	B	r	b	900	1	6	13	22-May-16	25	blue	a	1	0.5665	A	C	b	r	900	1	6	13	22-May-16	26	blue	s	1	0.5766	C	B	r	b	900	1	6	13	22-May-16	27	blue	l	1	0.5421	D	B	b	r	900	1	6	13	22-May-16	28	blue	s	0	0.5178	D	C	r	b	900	1	6	13	22-May-16	29	blue	s	1	0.5503	B	D	b	r	900	1	6	13	22-May-16	30	blue	a	1	0.5871	A	D	b	r	900	1	6	13	22-May-16	31	blue	s	1	0.6524	C	B	r	b	900	1	6	13	22-May-16	32	blue	k	0	0.5784	D	C	b	r	900	1	6	13	22-May-16	1	Red	s	1	0.6799	B	C	r	b	900	1	6	13	22-May-16	2	Red	l	1	0.6215	C	D	b	r	900	1	6	13	22-May-16	3	Red	a	1	0.556	C	A	b	r	900	1	6	13	22-May-16	4	Red	l	1	0.5484	D	A	r	b	900	1	6	13	22-May-16	5	Red	a	1	0.7544	A	B	r	b	900	1	6	13	22-May-16	6	Red	k	1	0.6669	C	B	r	b	900	1	6	13	22-May-16	7	Red	a	1	0.6337	B	A	b	r	900	1	6	13	22-May-16	8	Red	k	1	0.5837	C	D	r	b	900	1	6	13	22-May-16	9	Red	a	1	0.496	D	A	b	r	900	1	6	13	22-May-16	10	Red	l	1	0.5424	D	B	r	b	900	1	6	13	22-May-16	11	Red	s	1	0.6212	B	C	r	b	900	1	6	13	22-May-16	12	Red	a	1	0.5739	A	D	r	b	900	1	6	13	22-May-16	13	Red	l	1	0.5166	D	A	r	b	900	1	6	13	22-May-16	14	Red	s	0	0.5459	C	B	r	b	900	1	6	13	22-May-16	15	Red	s	1	0.5624	B	C	r	b	900	1	6	13	22-May-16	16	Red	a	1	0.6962	C	A	b	r	900	1	6	13	22-May-16	17	Red	a	1	0.5993	C	A	b	r	900	1	6	13	22-May-16	18	Red	s	1	0.6376	A	B	b	r	900	1	6	13	22-May-16	19	Red	k	1	0.6128	C	A	r	b	900	1	6	13	22-May-16	20	Red	k	1	0.8444	A	C	b	r	900	1	6	13	22-May-16	21	Red	k	1	0.8279	A	C	b	r	900	1	6	13	22-May-16	22	Red	s	1	0.5781	B	C	r	b	900	1	6	13	22-May-16	23	Red	k	0	0.4712	B	D	b	r	900	1	6	13	22-May-16	24	Red	l	1	0.5981	C	D	b	r	900	1	6	13	22-May-16	25	Red	k	1	0.5269	A	C	b	r	900	1	6	13	22-May-16	26	Red	s	1	0.5098	C	B	b	r	900	1	6	13	22-May-16	27	Red	a	1	0.4042	A	C	r	b	900	1	6	13	22-May-16	28	Red	k	0	0.5413	D	B	b	r	900	1	6	13	22-May-16	29	Red	l	1	0.5716	C	D	b	r	900	1	6	13	22-May-16	30	Red	l	1	0.5149	D	A	r	b	900	1	6	13	22-May-16	31	Red	s	0	0.5052	D	C	b	r	900	1	6	13	22-May-16	32	Red	k	0	0.5618	B	A	r	b	900	1	6	13	22-May-16	1	blue	l	1	0.6534	D	A	b	r	900	1	6	13	22-May-16	2	blue	k	1	0.5966	B	C	r	b	900	1	6	13	22-May-16	3	blue	s	1	0.5401	A	B	r	b	900	1	6	13	22-May-16	4	blue	a	1	0.5389	B	A	r	b	900	1	6	13	22-May-16	5	blue	k	1	0.5307	C	A	b	r	900	1	6	13	22-May-16	6	blue	s	1	0.5459	B	D	b	r	900	1	6	13	22-May-16	7	blue	k	0	0.4749	C	B	r	b	900	1	6	13	22-May-16	8	blue	l	1	0.496	B	D	r	b	900	1	6	13	22-May-16	9	blue	l	1	0.5108	B	D	r	b	900	1	6	13	22-May-16	10	blue	s	0	0.6619	C	A	b	r	900	1	6	13	22-May-16	11	blue	k	0	0.5987	D	C	b	r	900	1	6	13	22-May-16	12	blue	s	1	0.5415	B	C	b	r	900	1	6	13	22-May-16	13	blue	a	1	0.491	A	C	b	r	900	1	6	13	22-May-16	14	blue	a	1	0.5707	D	A	r	b	900	1	6	13	22-May-16	15	blue	s	1	0.5308	B	C	b	r	900	1	6	13	22-May-16	16	blue	a	1	0.561	A	D	b	r	900	1	6	13	22-May-16	17	blue	k	1	0.6004	C	B	b	r	900	1	6	13	22-May-16	18	blue	s	1	0.5684	A	B	r	b	900	1	6	13	22-May-16	19	blue	a	1	0.4716	A	B	b	r	900	1	6	13	22-May-16	20	blue	a	1	0.5431	C	A	r	b	900	1	6	13	22-May-16	21	blue	l	1	0.5103	C	D	r	b	900	1	6	13	22-May-16	22	blue	s	0	0.5238	C	B	b	r	900	1	6	13	22-May-16	23	blue	k	1	0.524	C	A	b	r	900	1	6	13	22-May-16	24	blue	s	1	0.6022	B	C	b	r	900	1	6	13	22-May-16	25	blue	k	1	0.6497	A	C	r	b	900	1	6	13	22-May-16	26	blue	l	1	0.6102	D	A	b	r	900	1	6	13	22-May-16	27	blue	a	1	0.5925	A	C	b	r	900	1	6	13	22-May-16	28	blue	l	1	0.583	B	D	r	b	900	1	6	13	22-May-16	29	blue	a	1	0.63	C	A	r	b	900	1	6	13	22-May-16	30	blue	k	0	0.6793	D	B	b	r	900	1	6	13	22-May-16	31	blue	k	1	0.6607	B	C	r	b	900	1	6	13	22-May-16	32	blue	NaN	NaN	0	B	A	b	r	900	1	6	13	22-May-16	1	Red	l	1	0.5425	D	C	r	b	900	1	6	13	22-May-16	2	Red	l	1	0.5239	C	D	b	r	900	1	6	13	22-May-16	3	Red	l	1	0.5225	B	D	b	r	900	1	6	13	22-May-16	4	Red	k	0	0.5305	B	A	r	b	900	1	6	13	22-May-16	5	Red	k	1	0.5371	C	D	r	b	900	1	6	13	22-May-16	6	Red	a	1	0.6579	D	A	b	r	900	1	6	13	22-May-16	7	Red	s	1	0.5766	B	A	r	b	900	1	6	13	22-May-16	8	Red	s	1	0.5521	B	D	r	b	900	1	6	13	22-May-16	9	Red	l	1	0.5906	D	C	r	b	900	1	6	13	22-May-16	10	Red	a	1	0.7339	B	A	b	r	900	1	6	13	22-May-16	11	Red	a	1	0.6542	C	A	b	r	900	1	6	13	22-May-16	12	Red	a	1	0.605	C	A	b	r	900	1	6	13	22-May-16	13	Red	s	1	0.5383	C	B	b	r	900	1	6	13	22-May-16	14	Red	s	1	0.6576	B	A	r	b	900	1	6	13	22-May-16	15	Red	k	1	0.5853	C	D	r	b	900	1	6	13	22-May-16	16	Red	a	1	0.6236	C	A	b	r	900	1	6	13	22-May-16	17	Red	k	1	0.8635	C	D	r	b	900	1	6	13	22-May-16	18	Red	k	1	0.5832	C	A	r	b	900	1	6	13	22-May-16	19	Red	a	1	0.5177	A	B	r	b	900	1	6	13	22-May-16	20	Red	l	1	0.7568	D	B	r	b	900	1	6	13	22-May-16	21	Red	l	1	0.5866	D	A	r	b	900	1	6	13	22-May-16	22	Red	NaN	NaN	0	C	B	r	b	900	1	6	13	22-May-16	23	Red	k	0	0.1368	B	A	b	r	900	1	6	13	22-May-16	24	Red	k	0	0.8017	B	A	r	b	900	1	6	13	22-May-16	25	Red	k	1	0.7186	D	C	b	r	900	1	6	13	22-May-16	26	Red	l	1	0.5499	C	D	b	r	900	1	6	13	22-May-16	27	Red	s	0	0.7187	C	A	b	r	900	1	6	13	22-May-16	28	Red	s	1	0.6766	B	A	r	b	900	1	6	13	22-May-16	29	Red	k	1	0.7482	A	C	b	r	900	1	6	13	22-May-16	30	Red	k	1	0.5712	A	C	b	r	900	1	6	13	22-May-16	31	Red	k	0	0.5139	D	B	r	b	900	1	6	13	22-May-16	32	Red	s	1	0.6487	D	B	b	r	900	1	6	13	22-May-16	1	blue	s	1	0.6703	B	D	b	r	2000	1	6	13	22-May-16	2	blue	k	1	0.6456	D	C	r	b	2000	1	6	13	22-May-16	3	blue	l	1	0.566	D	A	b	r	2000	1	6	13	22-May-16	4	blue	k	1	0.5962	A	C	r	b	2000	1	6	13	22-May-16	5	blue	a	1	0.5316	A	D	b	r	2000	1	6	13	22-May-16	6	blue	a	1	0.5236	D	A	r	b	2000	1	6	13	22-May-16	7	blue	k	1	0.6204	C	A	b	r	2000	1	6	13	22-May-16	8	blue	a	1	0.6444	C	A	r	b	2000	1	6	13	22-May-16	9	blue	l	1	0.6533	D	C	b	r	2000	1	6	13	22-May-16	10	blue	a	1	0.5729	A	B	b	r	2000	1	6	13	22-May-16	11	blue	l	1	0.5418	C	D	r	b	2000	1	6	13	22-May-16	12	blue	a	1	0.5658	B	A	r	b	2000	1	6	13	22-May-16	13	blue	l	1	0.5085	D	A	b	r	2000	1	6	13	22-May-16	14	blue	s	1	0.6691	B	C	b	r	2000	1	6	13	22-May-16	15	blue	s	1	0.6045	B	C	b	r	2000	1	6	13	22-May-16	16	blue	k	1	0.6927	D	C	r	b	2000	1	6	13	22-May-16	17	blue	l	1	0.6527	D	A	b	r	2000	1	6	13	22-May-16	18	blue	s	1	0.6044	C	B	r	b	2000	1	6	13	22-May-16	19	blue	l	0	0.5418	C	A	b	r	2000	1	6	13	22-May-16	20	blue	l	1	0.5645	A	D	r	b	2000	1	6	13	22-May-16	21	blue	a	1	0.5725	A	B	b	r	2000	1	6	13	22-May-16	22	blue	s	1	0.6383	B	D	b	r	2000	1	6	13	22-May-16	23	blue	s	1	0.6062	B	A	b	r	2000	1	6	13	22-May-16	24	blue	l	1	0.5575	A	D	r	b	2000	1	6	13	22-May-16	25	blue	a	1	0.4865	A	C	b	r	2000	1	6	13	22-May-16	26	blue	s	1	0.6152	B	C	b	r	2000	1	6	13	22-May-16	27	blue	s	1	0.6702	A	B	r	b	2000	1	6	13	22-May-16	28	blue	k	1	0.7194	C	D	b	r	2000	1	6	13	22-May-16	29	blue	s	0	0.6216	C	B	b	r	2000	1	6	13	22-May-16	30	blue	k	1	0.7671	C	D	b	r	2000	1	6	13	22-May-16	31	blue	l	1	0.5436	C	D	r	b	2000	1	6	13	22-May-16	32	blue	a	1	0.6482	D	A	r	b	2000	1	6	13	22-May-16	1	Red	l	1	0.4943	A	D	b	r	2000	1	6	13	22-May-16	2	Red	k	1	0.6763	A	C	b	r	2000	1	6	13	22-May-16	3	Red	a	1	0.686	A	B	r	b	2000	1	6	13	22-May-16	4	Red	s	1	0.5886	B	D	r	b	2000	1	6	13	22-May-16	5	Red	k	1	0.7803	C	B	r	b	2000	1	6	13	22-May-16	6	Red	a	1	0.6936	C	A	b	r	2000	1	6	13	22-May-16	7	Red	k	1	0.5588	C	D	r	b	2000	1	6	13	22-May-16	8	Red	k	0	0.6948	D	B	r	b	2000	1	6	13	22-May-16	9	Red	a	1	0.5271	A	C	r	b	2000	1	6	13	22-May-16	10	Red	k	1	0.5814	C	B	r	b	2000	1	6	13	22-May-16	11	Red	a	1	0.6375	B	A	b	r	2000	1	6	13	22-May-16	12	Red	s	1	0.6139	A	B	b	r	2000	1	6	13	22-May-16	13	Red	s	1	0.5509	A	B	b	r	2000	1	6	13	22-May-16	14	Red	k	1	0.6788	C	B	r	b	2000	1	6	13	22-May-16	15	Red	a	1	0.6157	C	A	b	r	2000	1	6	13	22-May-16	16	Red	l	1	0.4708	B	D	b	r	2000	1	6	13	22-May-16	17	Red	l	1	0.5111	D	B	r	b	2000	1	6	13	22-May-16	18	Red	k	1	0.6475	C	A	r	b	2000	1	6	13	22-May-16	19	Red	a	1	0.5594	B	A	b	r	2000	1	6	13	22-May-16	20	Red	a	1	0.576	B	A	b	r	2000	1	6	13	22-May-16	21	Red	s	1	0.5677	D	B	b	r	2000	1	6	13	22-May-16	22	Red	s	1	0.5361	A	B	b	r	2000	1	6	13	22-May-16	23	Red	l	1	0.5754	D	A	r	b	2000	1	6	13	22-May-16	24	Red	l	1	0.5053	C	D	b	r	2000	1	6	13	22-May-16	25	Red	s	0	0.5359	C	D	r	b	2000	1	6	13	22-May-16	26	Red	a	1	0.5919	A	B	r	b	2000	1	6	13	22-May-16	27	Red	s	1	0.5763	B	C	r	b	2000	1	6	13	22-May-16	28	Red	l	1	0.6813	D	A	r	b	2000	1	6	13	22-May-16	29	Red	k	0	0.5531	B	D	r	b	2000	1	6	13	22-May-16	30	Red	k	1	0.585	B	C	b	r	2000	1	6	13	22-May-16	31	Red	k	0	0.5606	D	C	r	b	2000	1	6	13	22-May-16	32	Red	s	1	0.6331	B	C	r	b	2000	1	6	13	22-May-16	1	blue	l	1	0.5654	C	D	r	b	2000	1	6	13	22-May-16	2	blue	l	1	0.4677	C	D	r	b	2000	1	6	13	22-May-16	3	blue	a	1	0.5579	A	C	b	r	2000	1	6	13	22-May-16	4	blue	s	1	0.6603	A	B	r	b	2000	1	6	13	22-May-16	5	blue	s	1	0.6303	B	A	b	r	2000	1	6	13	22-May-16	6	blue	k	1	0.5901	C	D	b	r	2000	1	6	13	22-May-16	7	blue	l	1	0.5884	D	A	b	r	2000	1	6	13	22-May-16	8	blue	s	1	0.5746	B	A	b	r	2000	1	6	13	22-May-16	9	blue	a	1	0.5726	B	A	r	b	2000	1	6	13	22-May-16	10	blue	l	1	0.5815	D	A	b	r	2000	1	6	13	22-May-16	11	blue	a	1	0.6309	A	D	b	r	2000	1	6	13	22-May-16	12	blue	k	1	0.7011	C	D	b	r	2000	1	6	13	22-May-16	13	blue	l	0	1.1099	B	A	r	b	2000	1	6	13	22-May-16	14	blue	s	1	0.5986	C	B	r	b	2000	1	6	13	22-May-16	15	blue	k	1	0.6712	A	C	r	b	2000	1	6	13	22-May-16	16	blue	l	1	0.5758	C	D	r	b	2000	1	6	13	22-May-16	17	blue	s	1	0.6315	B	D	b	r	2000	1	6	13	22-May-16	18	blue	a	1	0.5663	B	A	r	b	2000	1	6	13	22-May-16	19	blue	l	1	0.5207	B	D	r	b	2000	1	6	13	22-May-16	20	blue	s	1	0.7208	A	B	r	b	2000	1	6	13	22-May-16	21	blue	k	1	0.5834	C	A	b	r	2000	1	6	13	22-May-16	22	blue	a	1	0.5834	C	A	r	b	2000	1	6	13	22-May-16	23	blue	k	1	0.537	A	C	r	b	2000	1	6	13	22-May-16	24	blue	k	1	0.6636	C	B	b	r	2000	1	6	13	22-May-16	25	blue	l	1	0.4893	A	D	r	b	2000	1	6	13	22-May-16	26	blue	k	1	0.5849	D	C	r	b	2000	1	6	13	22-May-16	27	blue	a	1	0.5934	A	D	b	r	2000	1	6	13	22-May-16	28	blue	a	1	0.5364	D	A	r	b	2000	1	6	13	22-May-16	29	blue	k	1	0.6648	B	C	r	b	2000	1	6	13	22-May-16	30	blue	s	1	0.7212	D	B	r	b	2000	1	6	13	22-May-16	31	blue	l	1	0.5611	A	D	r	b	2000	1	6	13	22-May-16	32	blue	s	1	0.6738	B	D	b	r	2000	1	6	13	22-May-16	1	Red	s	1	0.5274	B	C	r	b	2000	1	6	13	22-May-16	2	Red	s	1	0.5585	B	D	r	b	2000	1	6	13	22-May-16	3	Red	a	1	0.5099	A	D	r	b	2000	1	6	13	22-May-16	4	Red	k	1	0.6628	A	C	b	r	2000	1	6	13	22-May-16	5	Red	k	1	0.517	C	B	r	b	2000	1	6	13	22-May-16	6	Red	a	1	0.5588	D	A	b	r	2000	1	6	13	22-May-16	7	Red	l	1	0.6215	A	D	b	r	2000	1	6	13	22-May-16	8	Red	s	1	0.5742	B	D	r	b	2000	1	6	13	22-May-16	9	Red	a	1	0.5747	A	D	r	b	2000	1	6	13	22-May-16	10	Red	l	1	0.6066	D	B	r	b	2000	1	6	13	22-May-16	11	Red	s	1	0.5991	C	B	b	r	2000	1	6	13	22-May-16	12	Red	a	1	0.5191	A	C	r	b	2000	1	6	13	22-May-16	13	Red	s	1	0.7023	C	B	b	r	2000	1	6	13	22-May-16	14	Red	l	1	0.5993	D	C	r	b	2000	1	6	13	22-May-16	15	Red	s	0	0.5589	C	D	r	b	2000	1	6	13	22-May-16	16	Red	k	1	0.6467	C	D	r	b	2000	1	6	13	22-May-16	17	Red	s	1	0.5429	D	B	b	r	2000	1	6	13	22-May-16	18	Red	k	1	0.543	C	D	r	b	2000	1	6	13	22-May-16	19	Red	l	1	0.415	B	D	b	r	2000	1	6	13	22-May-16	20	Red	l	1	0.5111	D	B	r	b	2000	1	6	13	22-May-16	21	Red	k	1	0.6085	C	A	r	b	2000	1	6	13	22-May-16	22	Red	k	1	0.5842	B	C	b	r	2000	1	6	13	22-May-16	23	Red	s	1	0.5695	B	C	r	b	2000	1	6	13	22-May-16	24	Red	l	1	0.4488	C	D	b	r	2000	1	6	13	22-May-16	25	Red	a	1	0.3761	A	C	r	b	2000	1	6	13	22-May-16	26	Red	a	1	0.5136	D	A	b	r	2000	1	6	13	22-May-16	27	Red	a	1	0.449	B	A	b	r	2000	1	6	13	22-May-16	28	Red	l	1	0.4981	D	B	r	b	2000	1	6	13	22-May-16	29	Red	s	0	0.6162	C	D	r	b	2000	1	6	13	22-May-16	30	Red	s	1	0.5544	A	B	b	r	2000	1	6	13	22-May-16	31	Red	l	1	0.538	C	D	b	r	2000	1	6	13	22-May-16	32	Red	a	1	0.4969	A	D	r	b	2000	1	6	13	22-May-16	1	blue	s	0	0.5432	C	A	r	b	900	1	6	13	22-May-16	2	blue	l	1	0.6215	D	C	b	r	900	1	6	13	22-May-16	3	blue	s	1	0.6205	D	B	r	b	900	1	6	13	22-May-16	4	blue	l	1	0.5722	D	A	b	r	900	1	6	13	22-May-16	5	blue	s	1	0.5384	C	B	r	b	900	1	6	13	22-May-16	6	blue	k	1	0.499	C	B	b	r	900	1	6	13	22-May-16	7	blue	s	1	0.5615	A	B	r	b	900	1	6	13	22-May-16	8	blue	a	1	0.569	A	D	b	r	900	1	6	13	22-May-16	9	blue	a	1	0.4634	A	B	b	r	900	1	6	13	22-May-16	10	blue	k	0	0.5186	D	C	b	r	900	1	6	13	22-May-16	11	blue	l	1	0.5186	B	D	r	b	900	1	6	13	22-May-16	12	blue	s	0	0.6228	C	D	b	r	900	1	6	13	22-May-16	13	blue	k	1	0.6206	B	C	r	b	900	1	6	13	22-May-16	14	blue	s	1	0.5395	A	B	r	b	900	1	6	13	22-May-16	15	blue	k	1	0.5536	C	B	b	r	900	1	6	13	22-May-16	16	blue	s	1	0.5122	B	A	b	r	900	1	6	13	22-May-16	17	blue	s	1	0.5926	B	D	b	r	900	1	6	13	22-May-16	18	blue	a	1	0.7595	C	A	r	b	900	1	6	13	22-May-16	19	blue	a	1	0.526	D	A	r	b	900	1	6	13	22-May-16	20	blue	l	1	0.5739	D	A	b	r	900	1	6	13	22-May-16	21	blue	s	0	0.5413	B	C	r	b	900	1	6	13	22-May-16	22	blue	k	1	0.5866	D	C	r	b	900	1	6	13	22-May-16	23	blue	s	1	0.5153	D	B	r	b	900	1	6	13	22-May-16	24	blue	a	1	0.6575	B	A	r	b	900	1	6	13	22-May-16	25	blue	a	1	0.5532	A	D	b	r	900	1	6	13	22-May-16	26	blue	l	1	0.5109	B	D	r	b	900	1	6	13	22-May-16	27	blue	s	0	0.574	A	C	r	b	900	1	6	13	22-May-16	28	blue	l	1	0.6389	D	B	b	r	900	1	6	13	22-May-16	29	blue	s	1	0.5822	A	B	r	b	900	1	6	13	22-May-16	30	blue	k	1	0.5649	A	C	r	b	900	1	6	13	22-May-16	31	blue	l	1	0.6287	D	A	b	r	900	1	6	13	22-May-16	32	blue	a	1	0.4584	A	D	b	r	900	1	6	13	22-May-16	1	Red	k	1	0.7412	C	B	r	b	900	1	6	13	22-May-16	2	Red	a	1	0.4495	B	A	b	r	900	1	6	13	22-May-16	3	Red	s	0	0.4897	D	A	b	r	900	1	6	13	22-May-16	4	Red	k	0	0.5359	B	D	r	b	900	1	6	13	22-May-16	5	Red	l	1	0.6799	D	C	r	b	900	1	6	13	22-May-16	6	Red	l	1	0.6065	C	D	b	r	900	1	6	13	22-May-16	7	Red	s	1	0.5743	B	C	r	b	900	1	6	13	22-May-16	8	Red	s	1	0.5481	A	B	b	r	900	1	6	13	22-May-16	9	Red	k	1	0.4684	A	C	b	r	900	1	6	13	22-May-16	10	Red	k	0	0.5298	B	C	r	b	900	1	6	13	22-May-16	11	Red	k	1	0.4647	C	A	r	b	900	1	6	13	22-May-16	12	Red	a	1	0.4589	A	B	r	b	900	1	6	13	22-May-16	13	Red	s	1	0.5531	B	A	r	b	900	1	6	13	22-May-16	14	Red	k	1	0.5852	C	B	r	b	900	1	6	13	22-May-16	15	Red	l	1	0.456	B	D	b	r	900	1	6	13	22-May-16	16	Red	a	1	0.7339	A	D	r	b	900	1	6	13	22-May-16	17	Red	s	1	0.6777	D	B	b	r	900	1	6	13	22-May-16	18	Red	k	1	0.6276	C	D	r	b	900	1	6	13	22-May-16	19	Red	a	1	0.5541	A	C	r	b	900	1	6	13	22-May-16	20	Red	k	0	0.5049	C	D	b	r	900	1	6	13	22-May-16	21	Red	k	1	0.5599	C	D	r	b	900	1	6	13	22-May-16	22	Red	l	1	0.5909	D	C	r	b	900	1	6	13	22-May-16	23	Red	l	1	0.4475	A	D	b	r	900	1	6	13	22-May-16	24	Red	a	1	0.5587	A	B	r	b	900	1	6	13	22-May-16	25	Red	s	1	0.6297	A	B	b	r	900	1	6	13	22-May-16	26	Red	k	0	0.483	A	D	b	r	900	1	6	13	22-May-16	27	Red	k	1	0.4898	A	C	b	r	900	1	6	13	22-May-16	28	Red	s	1	0.5386	C	B	b	r	900	1	6	13	22-May-16	29	Red	k	1	0.7046	A	C	b	r	900	1	6	13	22-May-16	30	Red	a	1	0.5519	A	D	r	b	900	1	6	13	22-May-16	31	Red	a	1	0.4152	C	A	b	r	900	1	6	13	22-May-16	32	Red	l	1	0.5417	D	A	r	b	900	1	6	13	22-May-16	1	blue	l	1	0.5222	D	A	b	r	900	1	6	13	22-May-16	2	blue	a	1	0.5375	A	C	b	r	900	1	6	13	22-May-16	3	blue	k	1	0.6979	D	C	r	b	900	1	6	13	22-May-16	4	blue	s	1	0.6411	B	A	b	r	900	1	6	13	22-May-16	5	blue	a	1	0.5367	C	A	r	b	900	1	6	13	22-May-16	6	blue	a	1	0.5204	B	A	r	b	900	1	6	13	22-May-16	7	blue	k	1	0.6145	D	C	r	b	900	1	6	13	22-May-16	8	blue	a	1	0.5979	B	A	r	b	900	1	6	13	22-May-16	9	blue	k	0	0.582	B	A	b	r	900	1	6	13	22-May-16	10	blue	l	1	0.5631	D	C	b	r	900	1	6	13	22-May-16	11	blue	k	1	0.5877	D	C	r	b	900	1	6	13	22-May-16	12	blue	a	1	0.4684	A	C	b	r	900	1	6	13	22-May-16	13	blue	l	1	0.4416	C	D	r	b	900	1	6	13	22-May-16	14	blue	l	1	0.5215	D	B	b	r	900	1	6	13	22-May-16	15	blue	s	0	0.4792	C	B	b	r	900	1	6	13	22-May-16	16	blue	k	1	0.5435	C	B	b	r	900	1	6	13	22-May-16	17	blue	k	1	0.5899	B	C	r	b	900	1	6	13	22-May-16	18	blue	l	1	0.5179	A	D	r	b	900	1	6	13	22-May-16	19	blue	s	1	0.6145	B	C	b	r	900	1	6	13	22-May-16	20	blue	k	1	0.5653	D	C	r	b	900	1	6	13	22-May-16	21	blue	s	1	0.6113	D	B	r	b	900	1	6	13	22-May-16	22	blue	a	1	0.499	A	B	b	r	900	1	6	13	22-May-16	23	blue	s	1	0.6012	B	A	b	r	900	1	6	13	22-May-16	24	blue	l	1	0.6552	D	A	b	r	900	1	6	13	22-May-16	25	blue	s	1	0.5589	C	B	r	b	900	1	6	13	22-May-16	26	blue	a	1	0.6777	B	A	r	b	900	1	6	13	22-May-16	27	blue	l	1	0.5173	B	D	r	b	900	1	6	13	22-May-16	28	blue	k	0	0.5817	B	C	b	r	900	1	6	13	22-May-16	29	blue	s	1	0.5879	D	B	r	b	900	1	6	13	22-May-16	30	blue	a	1	0.5793	C	A	r	b	900	1	6	13	22-May-16	31	blue	l	0	0.6009	C	A	b	r	900	1	6	13	22-May-16	32	blue	l	1	0.5854	D	B	b	r	900	1	6	13	22-May-16	1	Red	l	1	0.5612	A	D	b	r	900	1	6	13	22-May-16	2	Red	l	1	0.4789	D	A	r	b	900	1	6	13	22-May-16	3	Red	s	1	0.5831	B	A	r	b	900	1	6	13	22-May-16	4	Red	l	1	0.5078	C	D	b	r	900	1	6	13	22-May-16	5	Red	a	1	0.5231	A	D	r	b	900	1	6	13	22-May-16	6	Red	a	1	0.5003	A	B	r	b	900	1	6	13	22-May-16	7	Red	k	1	0.6191	D	C	b	r	900	1	6	13	22-May-16	8	Red	a	1	0.4746	A	B	r	b	900	1	6	13	22-May-16	9	Red	s	1	0.7289	B	C	r	b	900	1	6	13	22-May-16	10	Red	k	1	0.6487	B	C	b	r	900	1	6	13	22-May-16	11	Red	l	1	0.6248	D	A	r	b	900	1	6	13	22-May-16	12	Red	l	1	0.5185	D	B	r	b	900	1	6	13	22-May-16	13	Red	s	0	0.4773	C	D	r	b	900	1	6	13	22-May-16	14	Red	s	1	0.5409	B	C	r	b	900	1	6	13	22-May-16	15	Red	a	1	0.4853	A	B	r	b	900	1	6	13	22-May-16	16	Red	k	1	0.4992	C	D	r	b	900	1	6	13	22-May-16	17	Red	s	1	0.6974	B	A	r	b	900	1	6	13	22-May-16	18	Red	l	1	0.6179	C	D	b	r	900	1	6	13	22-May-16	19	Red	a	1	0.6474	C	A	b	r	900	1	6	13	22-May-16	20	Red	a	1	0.6071	B	A	b	r	900	1	6	13	22-May-16	21	Red	k	0	0.6382	B	C	r	b	900	1	6	13	22-May-16	22	Red	a	1	0.5723	C	A	b	r	900	1	6	13	22-May-16	23	Red	s	1	0.6031	A	B	b	r	900	1	6	13	22-May-16	24	Red	s	1	0.5783	B	C	r	b	900	1	6	13	22-May-16	25	Red	a	1	0.6432	D	A	b	r	900	1	6	13	22-May-16	26	Red	k	1	0.6671	C	D	r	b	900	1	6	13	22-May-16	27	Red	k	1	0.5847	A	C	b	r	900	1	6	13	22-May-16	28	Red	k	1	0.5197	D	C	b	r	900	1	6	13	22-May-16	29	Red	l	1	0.4554	A	D	b	r	900	1	6	13	22-May-16	30	Red	k	1	0.5841	C	B	r	b	900	1	6	13	22-May-16	31	Red	s	1	0.598	B	C	r	b	900	1	6	13	22-May-16	32	Red	k	0	0.549	A	D	b	r	900	1	6	13	22-May-16	1	blue	l	1	0.5174	D	C	b	r	2000	1	6	03	22-May-16	2	blue	a	1	0.5654	A	D	b	r	900	1	6	03	22-May-16	3	blue	a	1	0.533	C	A	r	b	900	1	6	03	22-May-16	4	blue	s	1	0.5168	B	A	b	r	2000	1	6	03	22-May-16	5	blue	k	1	0.7067	B	C	r	b	2000	1	6	03	22-May-16	6	blue	l	1	0.5313	C	D	r	b	900	1	6	03	22-May-16	7	blue	s	0	0.6341	D	C	r	b	900	1	6	03	22-May-16	8	blue	a	1	0.6116	D	A	r	b	2000	1	6	03	22-May-16	9	blue	a	1	0.5382	A	C	b	r	900	1	6	03	22-May-16	10	blue	l	1	0.5532	D	C	b	r	900	1	6	03	22-May-16	11	blue	l	1	0.4968	D	A	b	r	2000	1	6	03	22-May-16	12	blue	a	1	0.5442	D	A	r	b	2000	1	6	03	22-May-16	13	blue	k	0	0.5852	B	A	b	r	900	1	6	03	22-May-16	14	blue	l	1	0.6088	D	B	b	r	2000	1	6	03	22-May-16	15	blue	l	1	0.6654	C	D	r	b	900	1	6	03	22-May-16	16	blue	k	1	0.961	A	C	r	b	2000	1	6	03	22-May-16	17	blue	k	1	0.5599	B	C	r	b	900	1	6	03	22-May-16	18	blue	l	1	0.639	D	B	b	r	900	1	6	03	22-May-16	19	blue	a	1	0.5037	D	A	r	b	900	1	6	03	22-May-16	20	blue	k	1	0.5177	C	D	b	r	900	1	6	03	22-May-16	21	blue	k	1	0.5477	B	C	r	b	2000	1	6	03	22-May-16	22	blue	k	1	0.5883	C	B	b	r	900	1	6	03	22-May-16	23	blue	s	1	0.5396	B	D	b	r	2000	1	6	03	22-May-16	24	blue	s	1	0.6268	C	B	r	b	900	1	6	03	22-May-16	25	blue	a	1	0.6042	D	A	r	b	2000	1	6	03	22-May-16	26	blue	k	0	0.5721	C	B	r	b	2000	1	6	03	22-May-16	27	blue	l	1	0.5728	C	D	r	b	2000	1	6	03	22-May-16	28	blue	s	1	0.6525	A	B	r	b	2000	1	6	03	22-May-16	29	blue	k	1	0.5878	A	C	r	b	2000	1	6	03	22-May-16	30	blue	a	1	0.572	D	A	r	b	2000	1	6	03	22-May-16	31	blue	k	0	0.5647	D	B	r	b	900	1	6	03	22-May-16	32	blue	k	0	0.5727	B	A	b	r	900	1	6	03	22-May-16	1	Red	l	1	0.452	B	D	b	r	900	1	6	03	22-May-16	2	Red	a	1	0.5447	C	A	b	r	900	1	6	03	22-May-16	3	Red	s	0	0.5829	B	C	b	r	900	1	6	03	22-May-16	4	Red	a	1	0.5656	A	C	r	b	2000	1	6	03	22-May-16	5	Red	k	1	0.6477	A	C	b	r	900	1	6	03	22-May-16	6	Red	s	1	0.7506	B	C	r	b	2000	1	6	03	22-May-16	7	Red	l	1	0.5194	C	D	b	r	900	1	6	03	22-May-16	8	Red	a	1	0.5024	A	D	r	b	2000	1	6	03	22-May-16	9	Red	k	1	0.5878	B	C	b	r	2000	1	6	03	22-May-16	10	Red	l	1	0.6048	D	B	r	b	900	1	6	03	22-May-16	11	Red	k	1	0.6138	C	D	r	b	900	1	6	03	22-May-16	12	Red	k	1	0.5321	C	B	r	b	900	1	6	03	22-May-16	13	Red	a	1	0.5294	B	A	b	r	900	1	6	03	22-May-16	14	Red	a	1	0.5227	B	A	b	r	2000	1	6	03	22-May-16	15	Red	a	1	0.5069	C	A	b	r	900	1	6	03	22-May-16	16	Red	l	1	0.5375	D	C	r	b	2000	1	6	03	22-May-16	17	Red	k	0	0.6316	B	A	r	b	900	1	6	03	22-May-16	18	Red	s	1	0.6078	A	B	b	r	2000	1	6	03	22-May-16	19	Red	k	1	0.7199	C	B	r	b	2000	1	6	03	22-May-16	20	Red	l	1	0.5909	A	D	b	r	2000	1	6	03	22-May-16	21	Red	l	1	0.5684	A	D	b	r	2000	1	6	03	22-May-16	22	Red	s	1	0.6147	C	B	b	r	2000	1	6	03	22-May-16	23	Red	s	1	0.6466	B	C	r	b	900	1	6	03	22-May-16	24	Red	k	1	0.5179	B	C	b	r	2000	1	6	03	22-May-16	25	Red	l	1	0.6071	D	C	r	b	900	1	6	03	22-May-16	26	Red	l	1	0.4707	C	D	b	r	2000	1	6	03	22-May-16	27	Red	s	1	0.6068	B	C	r	b	900	1	6	03	22-May-16	28	Red	k	1	0.5714	A	C	b	r	2000	1	6	03	22-May-16	29	Red	s	1	0.7794	B	A	r	b	900	1	6	03	22-May-16	30	Red	NaN	NaN	0	C	B	b	r	2000	1	6	03	22-May-16	31	Red	a	1	0.5854	A	D	r	b	2000	1	6	03	22-May-16	32	Red	a	1	0.545	C	A	b	r	900	1	6	03	22-May-16	1	blue	l	1	0.4809	A	D	r	b	2000	1	6	03	22-May-16	2	blue	k	1	0.7518	C	B	b	r	2000	1	6	03	22-May-16	3	blue	a	1	0.5784	D	A	r	b	2000	1	6	03	22-May-16	4	blue	a	1	0.457	C	A	r	b	2000	1	6	03	22-May-16	5	blue	a	1	0.442	D	A	r	b	900	1	6	03	22-May-16	6	blue	k	0	0.616	B	D	b	r	900	1	6	03	22-May-16	7	blue	l	1	1.0241	D	B	b	r	2000	1	6	03	22-May-16	8	blue	k	1	0.5849	C	D	b	r	2000	1	6	03	22-May-16	9	blue	a	1	0.6006	B	A	r	b	900	1	6	03	22-May-16	10	blue	k	1	0.5426	D	C	r	b	2000	1	6	03	22-May-16	11	blue	k	0	0.5187	D	A	b	r	2000	1	6	03	22-May-16	12	blue	l	1	0.4786	A	D	r	b	900	1	6	03	22-May-16	13	blue	s	1	0.5915	B	C	b	r	2000	1	6	03	22-May-16	14	blue	l	1	0.4463	A	D	r	b	900	1	6	03	22-May-16	15	blue	l	1	0.4609	A	D	r	b	900	1	6	03	22-May-16	16	blue	a	1	0.4776	A	D	b	r	900	1	6	03	22-May-16	17	blue	l	1	0.4992	B	D	r	b	2000	1	6	03	22-May-16	18	blue	l	1	0.5644	A	D	r	b	900	1	6	03	22-May-16	19	blue	s	0	0.716	C	A	b	r	900	1	6	03	22-May-16	20	blue	k	1	0.5784	A	C	r	b	900	1	6	03	22-May-16	21	blue	k	0	0.5374	B	C	b	r	900	1	6	03	22-May-16	22	blue	s	1	0.5434	D	B	r	b	2000	1	6	03	22-May-16	23	blue	a	1	0.4796	B	A	r	b	2000	1	6	03	22-May-16	24	blue	a	1	0.3918	C	A	r	b	900	1	6	03	22-May-16	25	blue	k	1	0.5834	C	A	b	r	900	1	6	03	22-May-16	26	blue	a	0	0.534	C	B	r	b	900	1	6	03	22-May-16	27	blue	s	1	0.5646	A	B	r	b	900	1	6	03	22-May-16	28	blue	l	0	0.6444	C	D	b	r	900	1	6	03	22-May-16	29	blue	a	1	0.6043	A	B	b	r	2000	1	6	03	22-May-16	30	blue	k	0	0.6669	B	C	b	r	2000	1	6	03	22-May-16	31	blue	k	1	0.6507	C	A	b	r	2000	1	6	03	22-May-16	32	blue	s	1	0.5324	C	B	r	b	2000	1	6	03	22-May-16	1	Red	s	1	0.6993	D	B	b	r	900	1	6	03	22-May-16	2	Red	s	1	0.5232	C	B	b	r	900	1	6	03	22-May-16	3	Red	k	1	0.7288	C	A	r	b	2000	1	6	03	22-May-16	4	Red	a	1	0.5527	A	C	r	b	900	1	6	03	22-May-16	5	Red	s	0	0.6342	A	C	b	r	2000	1	6	03	22-May-16	6	Red	a	1	0.3699	A	C	r	b	900	1	6	03	22-May-16	7	Red	l	1	0.5773	D	C	r	b	2000	1	6	03	22-May-16	8	Red	a	1	0.5374	A	D	r	b	2000	1	6	03	22-May-16	9	Red	a	1	0.5034	A	C	r	b	900	1	6	03	22-May-16	10	Red	s	1	0.5907	B	D	r	b	2000	1	6	03	22-May-16	11	Red	l	1	0.5356	D	A	r	b	2000	1	6	03	22-May-16	12	Red	a	1	0.6248	D	A	b	r	2000	1	6	03	22-May-16	13	Red	k	0	0.5511	C	D	b	r	2000	1	6	03	22-May-16	14	Red	l	1	0.7767	D	A	r	b	2000	1	6	03	22-May-16	15	Red	l	1	0.5601	D	B	r	b	900	1	6	03	22-May-16	16	Red	k	1	0.695	D	C	b	r	900	1	6	03	22-May-16	17	Red	k	1	0.5831	D	C	b	r	2000	1	6	03	22-May-16	18	Red	l	1	0.5673	A	D	b	r	900	1	6	03	22-May-16	19	Red	s	1	0.7274	B	A	r	b	2000	1	6	03	22-May-16	20	Red	s	1	0.5262	B	A	r	b	900	1	6	03	22-May-16	21	Red	a	1	0.5661	A	B	r	b	900	1	6	03	22-May-16	22	Red	k	1	0.541	B	C	b	r	900	1	6	03	22-May-16	23	Red	l	1	0.6202	D	B	r	b	900	1	6	03	22-May-16	24	Red	l	1	0.5643	D	B	r	b	900	1	6	03	22-May-16	25	Red	a	1	0.644	A	C	r	b	2000	1	6	03	22-May-16	26	Red	k	0	0.5567	B	D	r	b	2000	1	6	03	22-May-16	27	Red	k	1	0.541	C	B	r	b	2000	1	6	03	22-May-16	28	Red	s	1	0.5799	A	B	b	r	2000	1	6	03	22-May-16	29	Red	k	1	0.7556	A	C	b	r	900	1	6	03	22-May-16	30	Red	s	0	0.643	C	A	b	r	2000	1	6	03	22-May-16	31	Red	s	1	0.5389	A	B	b	r	900	1	6	03	22-May-16	32	Red	k	1	0.6346	C	A	r	b	900	1	6	03	22-May-16	1	blue	a	1	0.4095	A	C	b	r	900	1	6	03	22-May-16	2	blue	a	1	0.5029	D	A	r	b	2000	1	6	03	22-May-16	3	blue	l	0	0.5447	D	C	r	b	900	1	6	03	22-May-16	4	blue	s	1	0.552	B	A	b	r	900	1	6	03	22-May-16	5	blue	s	1	0.5339	B	C	b	r	900	1	6	03	22-May-16	6	blue	s	1	0.5033	A	B	r	b	2000	1	6	03	22-May-16	7	blue	l	1	0.5747	B	D	r	b	900	1	6	03	22-May-16	8	blue	l	1	0.415	C	D	r	b	900	1	6	03	22-May-16	9	blue	s	1	0.6456	B	D	b	r	2000	1	6	03	22-May-16	10	blue	l	1	0.5088	A	D	r	b	2000	1	6	03	22-May-16	11	blue	s	0	0.5744	B	C	r	b	2000	1	6	03	22-May-16	12	blue	a	1	0.4943	B	A	r	b	900	1	6	03	22-May-16	13	blue	k	1	0.6685	C	B	b	r	2000	1	6	03	22-May-16	14	blue	a	1	0.55	D	A	r	b	2000	1	6	03	22-May-16	15	blue	a	1	0.4441	D	A	r	b	2000	1	6	03	22-May-16	16	blue	l	1	0.5743	B	D	r	b	2000	1	6	03	22-May-16	17	blue	a	1	0.6048	C	A	r	b	900	1	6	03	22-May-16	18	blue	k	1	0.6777	B	C	r	b	2000	1	6	03	22-May-16	19	blue	l	1	0.604	C	D	r	b	900	1	6	03	22-May-16	20	blue	a	1	0.5735	A	D	b	r	2000	1	6	03	22-May-16	21	blue	k	1	0.5897	C	A	b	r	900	1	6	03	22-May-16	22	blue	s	1	0.5956	C	B	r	b	900	1	6	03	22-May-16	23	blue	a	1	0.5317	D	A	r	b	900	1	6	03	22-May-16	24	blue	k	1	0.5378	C	B	b	r	900	1	6	03	22-May-16	25	blue	s	1	0.6883	B	D	b	r	2000	1	6	03	22-May-16	26	blue	l	1	0.6725	D	C	b	r	900	1	6	03	22-May-16	27	blue	s	0	0.4968	A	C	r	b	2000	1	6	03	22-May-16	28	blue	k	0	0.8474	D	A	b	r	2000	1	6	03	22-May-16	29	blue	s	1	0.69	B	C	b	r	900	1	6	03	22-May-16	30	blue	k	1	0.5752	C	D	b	r	900	1	6	03	22-May-16	31	blue	s	1	0.6312	C	B	r	b	2000	1	6	03	22-May-16	32	blue	l	1	0.5279	D	A	b	r	2000	1	6	03	22-May-16	1	Red	l	0	0.5242	D	C	b	r	900	1	6	03	22-May-16	2	Red	a	1	0.5541	A	C	r	b	2000	1	6	03	22-May-16	3	Red	k	1	0.553	C	B	r	b	900	1	6	03	22-May-16	4	Red	a	1	0.4961	A	D	r	b	900	1	6	03	22-May-16	5	Red	a	1	0.5689	A	C	r	b	900	1	6	03	22-May-16	6	Red	a	1	0.5115	B	A	b	r	900	1	6	03	22-May-16	7	Red	l	1	0.5757	C	D	b	r	2000	1	6	03	22-May-16	8	Red	s	1	0.7272	B	A	r	b	900	1	6	03	22-May-16	9	Red	s	1	0.5428	D	B	b	r	2000	1	6	03	22-May-16	10	Red	a	1	0.5675	A	D	r	b	900	1	6	03	22-May-16	11	Red	k	1	0.6705	C	B	r	b	2000	1	6	03	22-May-16	12	Red	a	1	0.6527	A	B	r	b	2000	1	6	03	22-May-16	13	Red	k	0	0.5662	C	B	b	r	2000	1	6	03	22-May-16	14	Red	s	1	0.6534	D	B	b	r	2000	1	6	03	22-May-16	15	Red	a	1	0.5105	B	A	b	r	2000	1	6	03	22-May-16	16	Red	a	0	0.4296	D	A	r	b	900	1	6	03	22-May-16	17	Red	k	1	0.6209	C	B	r	b	2000	1	6	03	22-May-16	18	Red	k	1	0.5091	C	B	r	b	2000	1	6	03	22-May-16	19	Red	s	1	0.6866	B	D	r	b	900	1	6	03	22-May-16	20	Red	k	1	0.5806	C	B	r	b	900	1	6	03	22-May-16	21	Red	s	0	0.5473	A	C	b	r	900	1	6	03	22-May-16	22	Red	s	1	0.5228	B	A	r	b	900	1	6	03	22-May-16	23	Red	l	1	0.5947	A	D	b	r	2000	1	6	03	22-May-16	24	Red	k	1	0.6655	A	C	b	r	2000	1	6	03	22-May-16	25	Red	s	1	0.5779	C	B	b	r	2000	1	6	03	22-May-16	26	Red	l	1	0.4752	B	D	b	r	900	1	6	03	22-May-16	27	Red	s	0	0.5365	A	D	r	b	2000	1	6	03	22-May-16	28	Red	k	0	0.6576	D	B	b	r	900	1	6	03	22-May-16	29	Red	k	0	0.7766	D	C	r	b	2000	1	6	03	22-May-16	30	Red	l	1	0.6024	D	B	r	b	2000	1	6	03	22-May-16	31	Red	l	1	0.5609	A	D	b	r	900	1	6	03	22-May-16	32	Red	l	1	0.4485	A	D	b	r	900	1	6	03	22-May-16	1	blue	s	0	0.5119	B	A	r	b	2000	1	6	03	22-May-16	2	blue	s	1	0.5909	B	D	b	r	900	1	6	03	22-May-16	3	blue	l	1	0.5495	C	D	r	b	900	1	6	03	22-May-16	4	blue	a	1	0.5959	D	A	r	b	2000	1	6	03	22-May-16	5	blue	l	1	0.5712	C	D	r	b	2000	1	6	03	22-May-16	6	blue	s	1	0.5733	B	C	b	r	900	1	6	03	22-May-16	7	blue	l	1	0.5319	D	B	b	r	900	1	6	03	22-May-16	8	blue	s	1	0.4753	D	B	r	b	2000	1	6	03	22-May-16	9	blue	s	1	0.5709	C	B	r	b	900	1	6	03	22-May-16	10	blue	a	1	0.611	A	B	b	r	900	1	6	03	22-May-16	11	blue	l	1	0.5781	D	C	b	r	2000	1	6	03	22-May-16	12	blue	k	1	0.6074	C	B	b	r	2000	1	6	03	22-May-16	13	blue	k	1	0.5346	B	C	r	b	900	1	6	03	22-May-16	14	blue	a	1	0.5244	B	A	r	b	2000	1	6	03	22-May-16	15	blue	s	1	0.5905	B	D	b	r	2000	1	6	03	22-May-16	16	blue	s	0	0.5806	C	A	b	r	900	1	6	03	22-May-16	17	blue	s	0	0.5154	A	C	r	b	2000	1	6	03	22-May-16	18	blue	l	1	0.5645	C	D	r	b	900	1	6	03	22-May-16	19	blue	s	1	0.5949	B	D	b	r	900	1	6	03	22-May-16	20	blue	k	1	0.523	C	B	b	r	2000	1	6	03	22-May-16	21	blue	k	1	0.5551	D	C	r	b	900	1	6	03	22-May-16	22	blue	k	1	0.4835	B	C	r	b	2000	1	6	03	22-May-16	23	blue	a	1	0.5398	B	A	r	b	900	1	6	03	22-May-16	24	blue	l	1	0.6332	D	C	b	r	2000	1	6	03	22-May-16	25	blue	s	1	0.6574	A	B	r	b	2000	1	6	03	22-May-16	26	blue	a	1	0.4504	A	B	b	r	2000	1	6	03	22-May-16	27	blue	s	1	0.5715	C	B	r	b	2000	1	6	03	22-May-16	28	blue	k	1	0.6027	C	A	b	r	900	1	6	03	22-May-16	29	blue	a	1	0.5799	C	A	r	b	900	1	6	03	22-May-16	30	blue	l	1	0.5288	C	D	r	b	2000	1	6	03	22-May-16	31	blue	l	1	0.5619	D	C	b	r	900	1	6	03	22-May-16	32	blue	a	1	0.5372	A	D	b	r	900	1	6	03	22-May-16	1	Red	k	0	0.5451	B	A	r	b	900	1	6	03	22-May-16	2	Red	k	1	0.5427	C	A	r	b	2000	1	6	03	22-May-16	3	Red	NaN	NaN	0	C	A	b	r	900	1	6	03	22-May-16	4	Red	k	1	0.6605	B	C	b	r	2000	1	6	03	22-May-16	5	Red	a	1	0.6132	A	B	r	b	900	1	6	03	22-May-16	6	Red	k	1	0.5559	C	A	r	b	900	1	6	03	22-May-16	7	Red	a	1	0.4675	A	B	r	b	2000	1	6	03	22-May-16	8	Red	a	1	0.5408	C	A	b	r	2000	1	6	03	22-May-16	9	Red	s	0	0.5008	C	A	b	r	900	1	6	03	22-May-16	10	Red	k	1	0.6055	B	C	b	r	900	1	6	03	22-May-16	11	Red	l	1	0.6359	D	B	r	b	900	1	6	03	22-May-16	12	Red	a	1	0.5378	C	A	b	r	900	1	6	03	22-May-16	13	Red	l	1	0.6565	D	C	r	b	2000	1	6	03	22-May-16	14	Red	k	1	0.904	D	C	b	r	2000	1	6	03	22-May-16	15	Red	l	1	0.5621	A	D	b	r	900	1	6	03	22-May-16	16	Red	s	1	0.6242	D	B	b	r	900	1	6	03	22-May-16	17	Red	s	1	0.5608	C	B	b	r	2000	1	6	03	22-May-16	18	Red	l	1	0.6086	C	D	b	r	900	1	6	03	22-May-16	19	Red	s	1	0.6227	C	B	b	r	2000	1	6	03	22-May-16	20	Red	k	1	0.5769	B	C	b	r	2000	1	6	03	22-May-16	21	Red	s	1	0.6871	B	A	r	b	900	1	6	03	22-May-16	22	Red	s	1	0.6069	D	B	b	r	900	1	6	03	22-May-16	23	Red	a	1	0.5421	A	C	r	b	2000	1	6	03	22-May-16	24	Red	l	1	0.6396	D	B	r	b	900	1	6	03	22-May-16	25	Red	s	1	0.6386	A	B	b	r	2000	1	6	03	22-May-16	26	Red	a	1	0.669	D	A	b	r	2000	1	6	03	22-May-16	27	Red	k	1	0.5574	C	D	r	b	900	1	6	03	22-May-16	28	Red	s	1	0.6358	B	D	r	b	2000	1	6	03	22-May-16	29	Red	l	1	0.5898	A	D	b	r	2000	1	6	03	22-May-16	30	Red	l	1	0.4999	C	D	b	r	2000	1	6	03	22-May-16	31	Red	k	1	0.6769	C	D	r	b	900	1	6	03	22-May-16	32	Red	l	1	0.6591	D	B	r	b	2000	1	6	03	22-May-16	1	blue	a	1	0.7831	B	A	r	b	2000	1	6	03	22-May-16	2	blue	l	1	0.5854	D	B	b	r	2000	1	6	03	22-May-16	3	blue	l	1	0.537	A	D	r	b	900	1	6	03	22-May-16	4	blue	l	1	0.424	A	D	r	b	2000	1	6	03	22-May-16	5	blue	k	0	0.5912	D	B	r	b	2000	1	6	03	22-May-16	6	blue	k	1	0.5512	B	C	r	b	900	1	6	03	22-May-16	7	blue	s	1	0.4881	B	C	b	r	2000	1	6	03	22-May-16	8	blue	l	1	0.695	D	C	b	r	900	1	6	03	22-May-16	9	blue	s	1	0.5667	D	B	r	b	900	1	6	03	22-May-16	10	blue	k	0	0.543	B	C	b	r	900	1	6	03	22-May-16	11	blue	a	1	0.5264	B	A	r	b	900	1	6	03	22-May-16	12	blue	k	1	0.5717	C	B	b	r	2000	1	6	03	22-May-16	13	blue	k	1	0.5893	D	C	r	b	900	1	6	03	22-May-16	14	blue	s	1	0.5401	A	B	r	b	900	1	6	03	22-May-16	15	blue	k	1	0.4928	C	A	b	r	2000	1	6	03	22-May-16	16	blue	a	1	0.5236	D	A	r	b	2000	1	6	03	22-May-16	17	blue	k	1	0.5403	B	C	r	b	2000	1	6	03	22-May-16	18	blue	l	1	0.6278	C	D	r	b	2000	1	6	03	22-May-16	19	blue	a	1	0.5403	A	B	b	r	2000	1	6	03	22-May-16	20	blue	a	1	0.5403	A	C	b	r	900	1	6	03	22-May-16	21	blue	a	1	0.6123	D	A	r	b	900	1	6	03	22-May-16	22	blue	k	1	0.5392	C	A	b	r	900	1	6	03	22-May-16	23	blue	k	1	0.5614	D	C	r	b	900	1	6	03	22-May-16	24	blue	s	1	0.5545	B	D	b	r	2000	1	6	03	22-May-16	25	blue	a	1	0.5223	B	A	r	b	900	1	6	03	22-May-16	26	blue	l	1	0.4882	B	D	r	b	900	1	6	03	22-May-16	27	blue	l	1	0.4794	A	D	r	b	900	1	6	03	22-May-16	28	blue	l	1	0.4073	A	D	r	b	2000	1	6	03	22-May-16	29	blue	s	1	0.5427	C	B	r	b	2000	1	6	03	22-May-16	30	blue	k	1	0.5989	A	C	r	b	2000	1	6	03	22-May-16	31	blue	a	1	0.5828	A	D	b	r	2000	1	6	03	22-May-16	32	blue	s	1	0.6464	B	A	b	r	900	1	6	03	22-May-16	1	Red	a	1	0.5724	A	C	r	b	2000	1	6	03	22-May-16	2	Red	s	0	0.6275	C	A	r	b	2000	1	6	03	22-May-16	3	Red	k	0	0.6186	C	D	b	r	2000	1	6	03	22-May-16	4	Red	k	1	0.5151	A	C	b	r	2000	1	6	03	22-May-16	5	Red	s	1	0.5885	B	A	r	b	900	1	6	03	22-May-16	6	Red	k	1	0.6826	D	C	b	r	2000	1	6	03	22-May-16	7	Red	a	1	0.5078	B	A	b	r	900	1	6	03	22-May-16	8	Red	a	1	0.4917	A	B	r	b	2000	1	6	03	22-May-16	9	Red	k	1	0.6036	C	D	r	b	2000	1	6	03	22-May-16	10	Red	l	1	0.5463	D	B	r	b	2000	1	6	03	22-May-16	11	Red	k	1	0.5792	D	C	b	r	900	1	6	03	22-May-16	12	Red	k	0	0.6428	D	A	r	b	900	1	6	03	22-May-16	13	Red	l	1	0.5383	D	A	r	b	2000	1	6	03	22-May-16	14	Red	a	1	0.5692	B	A	b	r	900	1	6	03	22-May-16	15	Red	k	0	0.6573	A	B	b	r	900	1	6	03	22-May-16	16	Red	l	1	0.633	D	A	r	b	2000	1	6	03	22-May-16	17	Red	s	1	0.594	B	C	r	b	2000	1	6	03	22-May-16	18	Red	k	1	0.6401	D	C	b	r	900	1	6	03	22-May-16	19	Red	s	1	0.6017	D	B	b	r	2000	1	6	03	22-May-16	20	Red	k	0	0.5849	C	B	b	r	2000	1	6	03	22-May-16	21	Red	a	1	0.5683	D	A	b	r	900	1	6	03	22-May-16	22	Red	l	1	0.5528	D	B	r	b	900	1	6	03	22-May-16	23	Red	a	1	0.5517	D	A	b	r	2000	1	6	03	22-May-16	24	Red	k	1	0.6139	A	C	b	r	900	1	6	03	22-May-16	25	Red	a	1	0.5258	D	A	b	r	2000	1	6	03	22-May-16	26	Red	a	1	0.5011	D	A	b	r	900	1	6	03	22-May-16	27	Red	NaN	NaN	0	D	A	r	b	900	1	6	03	22-May-16	28	Red	s	1	0.6921	B	D	r	b	900	1	6	03	22-May-16	29	Red	k	1	0.5717	C	D	r	b	900	1	6	03	22-May-16	30	Red	s	1	0.5461	B	D	r	b	2000	1	6	03	22-May-16	31	Red	k	0	0.5472	C	B	b	r	900	1	6	03	22-May-16	32	Red	l	1	0.6009	C	D	b	r	900	1	6	03	22-May-16	1	blue	l	1	0.671	D	B	b	r	2000	1	6	03	22-May-16	2	blue	s	1	0.6625	B	D	b	r	2000	1	6	03	22-May-16	3	blue	s	1	0.511	D	B	r	b	2000	1	6	03	22-May-16	4	blue	a	1	0.4631	A	D	b	r	900	1	6	03	22-May-16	5	blue	k	0	0.5492	B	C	b	r	2000	1	6	03	22-May-16	6	blue	s	1	0.5251	B	D	b	r	900	1	6	03	22-May-16	7	blue	s	1	0.7176	D	B	r	b	900	1	6	03	22-May-16	8	blue	a	1	0.5391	A	C	b	r	2000	1	6	03	22-May-16	9	blue	a	0	0.5233	A	B	r	b	900	1	6	03	22-May-16	10	blue	a	0	0.6909	B	C	b	r	900	1	6	03	22-May-16	11	blue	l	1	0.8115	C	D	r	b	2000	1	6	03	22-May-16	12	blue	l	1	0.6674	B	D	r	b	900	1	6	03	22-May-16	13	blue	k	1	0.6825	A	C	r	b	900	1	6	03	22-May-16	14	blue	l	1	0.7782	D	A	b	r	900	1	6	03	22-May-16	15	blue	s	1	0.6725	C	B	r	b	2000	1	6	03	22-May-16	16	blue	k	1	0.5122	A	C	r	b	900	1	6	03	22-May-16	17	blue	a	1	0.5259	A	B	b	r	2000	1	6	03	22-May-16	18	blue	a	1	0.496	A	B	b	r	2000	1	6	03	22-May-16	19	blue	k	0	0.5437	D	C	b	r	900	1	6	03	22-May-16	20	blue	a	1	0.5343	A	B	b	r	900	1	6	03	22-May-16	21	blue	a	1	0.5084	B	A	r	b	900	1	6	03	22-May-16	22	blue	l	1	0.5481	C	D	r	b	2000	1	6	03	22-May-16	23	blue	k	1	0.6289	D	C	r	b	2000	1	6	03	22-May-16	24	blue	a	1	0.5799	A	C	b	r	2000	1	6	03	22-May-16	25	blue	a	1	0.4935	D	A	r	b	900	1	6	03	22-May-16	26	blue	k	1	0.6348	D	C	r	b	2000	1	6	03	22-May-16	27	blue	k	1	0.6528	B	C	r	b	2000	1	6	03	22-May-16	28	blue	l	1	0.6528	C	D	r	b	2000	1	6	03	22-May-16	29	blue	NaN	NaN	0	C	A	b	r	900	1	6	03	22-May-16	30	blue	k	1	0.58	B	C	r	b	2000	1	6	03	22-May-16	31	blue	l	1	0.5793	D	A	b	r	900	1	6	03	22-May-16	32	blue	k	1	0.5545	C	B	b	r	900	1	6	03	22-May-16	1	Red	s	1	0.7238	D	B	b	r	2000	1	6	03	22-May-16	2	Red	k	1	0.612	B	C	b	r	2000	1	6	03	22-May-16	3	Red	s	0	0.5874	C	D	r	b	2000	1	6	03	22-May-16	4	Red	s	1	0.6849	B	D	r	b	900	1	6	03	22-May-16	5	Red	a	1	0.5877	A	D	r	b	2000	1	6	03	22-May-16	6	Red	l	1	0.6361	D	C	r	b	900	1	6	03	22-May-16	7	Red	s	0	0.5955	A	C	b	r	900	1	6	03	22-May-16	8	Red	a	1	0.514	A	D	r	b	900	1	6	03	22-May-16	9	Red	s	1	0.5202	C	B	b	r	900	1	6	03	22-May-16	10	Red	k	1	0.4398	C	D	r	b	2000	1	6	03	22-May-16	11	Red	s	0	0.559	A	B	r	b	900	1	6	03	22-May-16	12	Red	a	1	0.5262	A	C	r	b	900	1	6	03	22-May-16	13	Red	a	1	0.5102	B	A	b	r	2000	1	6	03	22-May-16	14	Red	k	1	0.7185	C	D	r	b	900	1	6	03	22-May-16	15	Red	a	1	0.5254	C	A	b	r	2000	1	6	03	22-May-16	16	Red	l	1	0.5413	C	D	b	r	900	1	6	03	22-May-16	17	Red	a	1	0.492	D	A	b	r	900	1	6	03	22-May-16	18	Red	k	1	0.5158	B	C	b	r	900	1	6	03	22-May-16	19	Red	l	1	0.6257	D	C	r	b	900	1	6	03	22-May-16	20	Red	l	1	0.6024	D	B	r	b	2000	1	6	03	22-May-16	21	Red	l	1	0.5531	D	B	r	b	2000	1	6	03	22-May-16	22	Red	k	1	0.5935	C	B	r	b	900	1	6	03	22-May-16	23	Red	s	1	0.5763	B	A	r	b	900	1	6	03	22-May-16	24	Red	a	1	0.519	A	B	r	b	2000	1	6	03	22-May-16	25	Red	l	1	0.5117	C	D	b	r	2000	1	6	03	22-May-16	26	Red	k	1	0.5829	C	D	r	b	2000	1	6	03	22-May-16	27	Red	s	1	0.6402	B	C	r	b	2000	1	6	03	22-May-16	28	Red	s	1	0.5752	A	B	b	r	2000	1	6	03	22-May-16	29	Red	s	1	0.5592	D	B	b	r	900	1	6	03	22-May-16	30	Red	s	1	0.4721	A	B	b	r	2000	1	6	03	22-May-16	31	Red	l	1	0.5919	A	D	b	r	2000	1	6	03	22-May-16	32	Red	l	1	0.4232	A	D	b	r	900	1	6	03	22-May-16	1	blue	s	1	0.6272	D	B	r	b	2000	1	6	03	22-May-16	2	blue	k	1	0.7525	C	A	b	r	900	1	6	03	22-May-16	3	blue	a	1	0.5116	B	A	r	b	900	1	6	03	22-May-16	4	blue	a	1	0.5288	B	A	r	b	2000	1	6	03	22-May-16	5	blue	a	1	0.4954	D	A	r	b	2000	1	6	03	22-May-16	6	blue	l	1	0.608	D	B	b	r	900	1	6	03	22-May-16	7	blue	k	0	0.6146	B	D	b	r	900	1	6	03	22-May-16	8	blue	k	1	0.5186	A	C	r	b	2000	1	6	03	22-May-16	9	blue	a	1	0.64	A	D	b	r	900	1	6	03	22-May-16	10	blue	k	0	0.6469	D	B	b	r	2000	1	6	03	22-May-16	11	blue	k	1	0.5835	B	C	r	b	2000	1	6	03	22-May-16	12	blue	a	1	0.5582	D	A	r	b	2000	1	6	03	22-May-16	13	blue	k	0	0.6311	C	B	r	b	900	1	6	03	22-May-16	14	blue	s	1	0.5901	D	B	r	b	900	1	6	03	22-May-16	15	blue	l	1	0.5654	A	D	r	b	900	1	6	03	22-May-16	16	blue	k	0	0.6145	B	D	b	r	2000	1	6	03	22-May-16	17	blue	l	1	0.6295	D	C	b	r	2000	1	6	03	22-May-16	18	blue	a	1	0.5816	A	B	b	r	900	1	6	03	22-May-16	19	blue	l	1	0.7479	C	D	r	b	2000	1	6	03	22-May-16	20	blue	s	1	0.5899	B	D	b	r	900	1	6	03	22-May-16	21	blue	a	1	0.5628	A	D	b	r	2000	1	6	03	22-May-16	22	blue	k	1	0.6275	C	B	b	r	2000	1	6	03	22-May-16	23	blue	k	1	0.5472	C	A	b	r	900	1	6	03	22-May-16	24	blue	a	1	0.6116	A	B	b	r	900	1	6	03	22-May-16	25	blue	k	1	0.5777	C	B	b	r	900	1	6	03	22-May-16	26	blue	k	1	0.4899	D	C	r	b	2000	1	6	03	22-May-16	27	blue	s	1	0.6091	D	B	r	b	2000	1	6	03	22-May-16	28	blue	k	0	0.9131	D	B	b	r	2000	1	6	03	22-May-16	29	blue	l	1	0.5865	B	D	r	b	900	1	6	03	22-May-16	30	blue	l	1	0.4815	D	A	b	r	900	1	6	03	22-May-16	31	blue	s	1	0.6419	A	B	r	b	2000	1	6	03	22-May-16	32	blue	k	1	0.5535	C	B	b	r	900	1	6	03	22-May-16	1	Red	s	1	0.6094	B	A	r	b	900	1	6	03	22-May-16	2	Red	s	0	0.5911	B	A	b	r	2000	1	6	03	22-May-16	3	Red	a	1	0.4872	A	C	r	b	2000	1	6	03	22-May-16	4	Red	l	1	0.5743	A	D	b	r	900	1	6	03	22-May-16	5	Red	l	1	0.494	B	D	b	r	2000	1	6	03	22-May-16	6	Red	l	1	0.4625	C	D	b	r	2000	1	6	03	22-May-16	7	Red	k	1	0.6868	A	C	b	r	900	1	6	03	22-May-16	8	Red	k	1	0.4307	A	C	b	r	2000	1	6	03	22-May-16	9	Red	l	1	0.7026	D	C	r	b	900	1	6	03	22-May-16	10	Red	k	1	0.5803	A	C	b	r	900	1	6	03	22-May-16	11	Red	a	1	0.5311	A	D	r	b	2000	1	6	03	22-May-16	12	Red	a	1	0.5555	A	D	r	b	900	1	6	03	22-May-16	13	Red	s	1	0.5866	B	A	r	b	900	1	6	03	22-May-16	14	Red	l	1	0.4992	A	D	b	r	2000	1	6	03	22-May-16	15	Red	k	1	0.5945	D	C	b	r	2000	1	6	03	22-May-16	16	Red	a	1	0.5553	A	B	r	b	900	1	6	03	22-May-16	17	Red	k	0	0.5449	B	C	r	b	2000	1	6	03	22-May-16	18	Red	s	1	0.6169	B	D	r	b	2000	1	6	03	22-May-16	19	Red	s	1	0.6015	B	D	r	b	2000	1	6	03	22-May-16	20	Red	s	0	0.4571	D	A	r	b	900	1	6	03	22-May-16	21	Red	a	1	0.5841	A	C	r	b	900	1	6	03	22-May-16	22	Red	s	1	0.631	C	B	b	r	900	1	6	03	22-May-16	23	Red	l	1	0.5822	D	A	r	b	2000	1	6	03	22-May-16	24	Red	a	1	0.5821	A	D	r	b	2000	1	6	03	22-May-16	25	Red	k	1	0.6163	D	C	b	r	2000	1	6	03	22-May-16	26	Red	s	1	0.6076	B	C	r	b	900	1	6	03	22-May-16	27	Red	l	1	0.5095	C	D	b	r	900	1	6	03	22-May-16	28	Red	k	0	0.7499	B	A	r	b	2000	1	6	03	22-May-16	29	Red	k	1	0.6698	B	C	b	r	900	1	6	03	22-May-16	30	Red	a	1	0.501	C	A	b	r	900	1	6	03	22-May-16	31	Red	k	1	0.8838	C	B	r	b	2000	1	6	03	22-May-16	32	Red	k	1	0.6528	D	C	b	r	900	1	6	03	22-May-16	1	blue	a	1	0.528	B	A	r	b	2000	1	6	03	22-May-16	2	blue	l	1	0.591	B	D	r	b	900	1	6	03	22-May-16	3	blue	a	1	0.5422	B	A	r	b	2000	1	6	03	22-May-16	4	blue	k	1	0.5732	A	C	r	b	900	1	6	03	22-May-16	5	blue	a	1	0.5567	A	C	b	r	900	1	6	03	22-May-16	6	blue	k	0	0.5229	A	B	r	b	900	1	6	03	22-May-16	7	blue	s	1	0.6103	B	C	b	r	2000	1	6	03	22-May-16	8	blue	k	1	0.6677	C	B	b	r	900	1	6	03	22-May-16	9	blue	s	1	0.7854	D	B	r	b	900	1	6	03	22-May-16	10	blue	l	1	0.4888	A	D	r	b	2000	1	6	03	22-May-16	11	blue	s	1	0.513	A	B	r	b	2000	1	6	03	22-May-16	12	blue	s	1	0.6024	C	B	r	b	2000	1	6	03	22-May-16	13	blue	k	0	0.6419	B	C	b	r	2000	1	6	03	22-May-16	14	blue	a	1	0.5932	B	A	r	b	2000	1	6	03	22-May-16	15	blue	s	0	0.6416	C	A	b	r	2000	1	6	03	22-May-16	16	blue	l	1	0.675	B	D	r	b	2000	1	6	03	22-May-16	17	blue	l	1	0.5058	D	C	b	r	900	1	6	03	22-May-16	18	blue	l	1	0.6104	D	C	b	r	2000	1	6	03	22-May-16	19	blue	s	0	0.5764	B	C	r	b	900	1	6	03	22-May-16	20	blue	s	1	0.4714	D	B	r	b	900	1	6	03	22-May-16	21	blue	k	1	0.6551	C	B	b	r	2000	1	6	03	22-May-16	22	blue	l	1	0.6389	A	D	r	b	2000	1	6	03	22-May-16	23	blue	NaN	NaN	0	B	A	b	r	900	1	6	03	22-May-16	24	blue	NaN	NaN	0	C	A	r	b	2000	1	6	03	22-May-16	25	blue	k	1	0.5838	C	B	b	r	2000	1	6	03	22-May-16	26	blue	k	1	0.5341	C	B	b	r	2000	1	6	03	22-May-16	27	blue	l	1	0.6301	A	D	r	b	900	1	6	03	22-May-16	28	blue	a	1	0.557	C	A	r	b	900	1	6	03	22-May-16	29	blue	k	1	0.5573	B	C	r	b	900	1	6	03	22-May-16	30	blue	a	1	0.5236	A	C	b	r	900	1	6	03	22-May-16	31	blue	a	1	0.5151	C	A	r	b	900	1	6	03	22-May-16	32	blue	l	1	0.5238	A	D	r	b	900	1	6	03	22-May-16	1	Red	a	1	0.5388	A	D	r	b	2000	1	6	03	22-May-16	2	Red	l	1	0.5463	C	D	b	r	2000	1	6	03	22-May-16	3	Red	a	1	0.5229	A	D	r	b	2000	1	6	03	22-May-16	4	Red	k	0	0.5055	B	C	r	b	900	1	6	03	22-May-16	5	Red	s	1	0.5293	D	B	b	r	900	1	6	03	22-May-16	6	Red	k	1	0.5115	C	B	r	b	900	1	6	03	22-May-16	7	Red	a	1	0.5193	A	B	r	b	900	1	6	03	22-May-16	8	Red	k	0	0.5259	B	A	r	b	900	1	6	03	22-May-16	9	Red	k	1	0.4305	D	C	b	r	900	1	6	03	22-May-16	10	Red	a	1	0.5169	B	A	b	r	900	1	6	03	22-May-16	11	Red	NaN	99	0	A	D	b	r	2000	1	6	03	22-May-16	12	Red	s	1	0.6665	A	B	b	r	2000	1	6	03	22-May-16	13	Red	a	1	0.5946	C	A	b	r	2000	1	6	03	22-May-16	14	Red	k	1	0.7237	C	A	r	b	900	1	6	03	22-May-16	15	Red	s	1	0.5628	A	B	b	r	2000	1	6	03	22-May-16	16	Red	s	0	0.5474	B	C	b	r	900	1	6	03	22-May-16	17	Red	l	1	0.5774	A	D	b	r	900	1	6	03	22-May-16	18	Red	l	1	0.594	D	B	r	b	2000	1	6	03	22-May-16	19	Red	l	1	0.5863	C	D	b	r	900	1	6	03	22-May-16	20	Red	a	1	0.5681	B	A	b	r	2000	1	6	03	22-May-16	21	Red	l	1	0.5278	D	C	r	b	900	1	6	03	22-May-16	22	Red	k	1	0.5832	C	D	r	b	2000	1	6	03	22-May-16	23	Red	k	1	0.687	C	B	r	b	2000	1	6	03	22-May-16	24	Red	l	1	0.5922	A	D	b	r	900	1	6	03	22-May-16	25	Red	a	1	0.5602	B	A	b	r	900	1	6	03	22-May-16	26	Red	a	1	0.4378	A	D	r	b	900	1	6	03	22-May-16	27	Red	l	1	0.5493	C	D	b	r	2000	1	6	03	22-May-16	28	Red	s	1	0.7578	D	B	b	r	2000	1	6	03	22-May-16	29	Red	s	1	0.6375	B	A	r	b	2000	1	6	03	22-May-16	30	Red	s	1	0.583	A	B	b	r	900	1	6	03	22-May-16	31	Red	k	1	0.4716	C	D	r	b	2000	1	6	03	22-May-16	32	Red	s	0	0.6303	B	C	b	r	2000	1	6	04	25-May-16	1	Red	k	1	0.5608	D	C	b	r	2000	1	6	14	25-May-16	2	Red	s	1	0.6857	B	C	r	b	2000	1	6	14	25-May-16	3	Red	l	1	0.6059	C	D	b	r	2000	1	6	14	25-May-16	4	Red	s	1	0.5899	C	B	b	r	2000	1	6	14	25-May-16	5	Red	a	1	0.5745	A	C	r	b	2000	1	6	14	25-May-16	6	Red	k	1	0.6064	B	C	b	r	2000	1	6	14	25-May-16	7	Red	a	1	0.5193	A	D	r	b	2000	1	6	14	25-May-16	8	Red	l	1	0.5044	D	A	r	b	2000	1	6	14	25-May-16	9	Red	k	1	0.5354	C	A	r	b	2000	1	6	14	25-May-16	10	Red	a	1	0.4878	B	A	b	r	2000	1	6	14	25-May-16	11	Red	s	1	0.5528	B	C	r	b	2000	1	6	14	25-May-16	12	Red	k	1	0.7912	D	C	b	r	2000	1	6	14	25-May-16	13	Red	a	1	0.5844	A	B	r	b	2000	1	6	14	25-May-16	14	Red	k	1	0.4818	D	C	b	r	2000	1	6	14	25-May-16	15	Red	s	1	0.5124	B	C	r	b	2000	1	6	14	25-May-16	16	Red	a	1	0.4902	C	A	b	r	2000	1	6	14	25-May-16	17	Red	s	1	0.5295	D	B	b	r	2000	1	6	14	25-May-16	18	Red	a	1	0.4414	A	D	r	b	2000	1	6	14	25-May-16	19	Red	s	1	0.5383	B	C	r	b	2000	1	6	14	25-May-16	20	Red	l	1	0.619	D	C	r	b	2000	1	6	14	25-May-16	21	Red	l	1	0.6183	C	D	b	r	2000	1	6	14	25-May-16	22	Red	k	1	0.6426	C	D	r	b	2000	1	6	14	25-May-16	23	Red	k	1	0.4914	C	D	r	b	2000	1	6	14	25-May-16	24	Red	k	1	0.5233	D	C	b	r	2000	1	6	14	25-May-16	25	Red	a	1	0.58	C	A	b	r	2000	1	6	14	25-May-16	26	Red	l	1	0.6201	D	A	r	b	2000	1	6	14	25-May-16	27	Red	s	1	0.5958	D	B	b	r	2000	1	6	14	25-May-16	28	Red	l	1	0.5473	D	A	r	b	2000	1	6	14	25-May-16	29	Red	s	1	0.5303	D	B	b	r	2000	1	6	14	25-May-16	30	Red	l	1	0.5307	D	C	r	b	2000	1	6	14	25-May-16	31	Red	l	1	0.5145	D	A	r	b	2000	1	6	14	25-May-16	32	Red	a	1	0.5395	B	A	b	r	2000	1	6	14	25-May-16	1	blue	s	1	0.6221	D	B	r	b	2000	1	6	14	25-May-16	2	blue	s	1	0.5091	D	B	r	b	2000	1	6	14	25-May-16	3	blue	s	1	0.4774	B	C	b	r	2000	1	6	14	25-May-16	4	blue	s	1	0.4854	D	B	r	b	2000	1	6	14	25-May-16	5	blue	s	1	0.494	C	B	r	b	2000	1	6	14	25-May-16	6	blue	k	1	0.5911	B	C	r	b	2000	1	6	14	25-May-16	7	blue	l	1	0.5677	D	C	b	r	2000	1	6	14	25-May-16	8	blue	a	1	0.512	B	A	r	b	2000	1	6	14	25-May-16	9	blue	a	1	0.5269	A	C	b	r	2000	1	6	14	25-May-16	10	blue	s	1	0.5747	D	B	r	b	2000	1	6	14	25-May-16	11	blue	k	1	0.5757	C	B	b	r	2000	1	6	14	25-May-16	12	blue	l	1	0.504	D	B	b	r	2000	1	6	14	25-May-16	13	blue	a	1	0.5201	A	B	b	r	2000	1	6	14	25-May-16	14	blue	k	1	0.5116	C	D	b	r	2000	1	6	14	25-May-16	15	blue	a	1	0.5108	A	B	b	r	2000	1	6	14	25-May-16	16	blue	a	1	0.4952	A	D	b	r	2000	1	6	14	25-May-16	17	blue	k	0	0.5436	B	A	b	r	2000	1	6	14	25-May-16	18	blue	a	1	0.5514	D	A	r	b	2000	1	6	14	25-May-16	19	blue	k	1	0.5615	C	A	b	r	2000	1	6	14	25-May-16	20	blue	k	1	0.5357	C	B	b	r	2000	1	6	14	25-May-16	21	blue	k	1	0.5283	D	C	r	b	2000	1	6	14	25-May-16	22	blue	a	1	0.5525	A	D	b	r	2000	1	6	14	25-May-16	23	blue	l	1	0.6174	C	D	r	b	2000	1	6	14	25-May-16	24	blue	k	1	0.5521	A	C	r	b	2000	1	6	14	25-May-16	25	blue	l	1	0.584	D	C	b	r	2000	1	6	14	25-May-16	26	blue	k	1	0.5532	D	C	r	b	2000	1	6	14	25-May-16	27	blue	l	1	0.6015	D	C	b	r	2000	1	6	14	25-May-16	28	blue	l	1	0.4896	A	D	r	b	2000	1	6	14	25-May-16	29	blue	a	1	0.506	A	D	b	r	2000	1	6	14	25-May-16	30	blue	l	1	0.5377	D	B	b	r	2000	1	6	14	25-May-16	31	blue	s	1	0.5868	B	A	b	r	2000	1	6	14	25-May-16	32	blue	l	1	0.6414	C	D	r	b	2000	1	6	14	25-May-16	1	Red	a	1	0.5211	A	C	r	b	2000	1	6	14	25-May-16	2	Red	a	1	0.5141	B	A	b	r	2000	1	6	14	25-May-16	3	Red	s	1	0.5284	D	B	b	r	2000	1	6	14	25-May-16	4	Red	a	1	0.5373	B	A	b	r	2000	1	6	14	25-May-16	5	Red	k	1	0.6174	A	C	b	r	2000	1	6	14	25-May-16	6	Red	k	1	0.521	C	B	r	b	2000	1	6	14	25-May-16	7	Red	s	1	0.6486	B	D	r	b	2000	1	6	14	25-May-16	8	Red	s	1	0.5525	B	A	r	b	2000	1	6	14	25-May-16	9	Red	a	1	0.5306	D	A	b	r	2000	1	6	14	25-May-16	10	Red	l	1	0.5775	D	A	r	b	2000	1	6	14	25-May-16	11	Red	l	1	0.6012	B	D	b	r	2000	1	6	14	25-May-16	12	Red	l	1	0.5856	C	D	b	r	2000	1	6	14	25-May-16	13	Red	a	1	0.5712	B	A	b	r	2000	1	6	14	25-May-16	14	Red	a	1	0.5948	B	A	b	r	2000	1	6	14	25-May-16	15	Red	l	1	0.6261	A	D	b	r	2000	1	6	14	25-May-16	16	Red	s	1	0.6517	B	C	r	b	2000	1	6	14	25-May-16	17	Red	k	1	0.6267	A	C	b	r	2000	1	6	14	25-May-16	18	Red	a	1	0.6516	B	A	b	r	2000	1	6	14	25-May-16	19	Red	a	1	0.6515	B	A	b	r	2000	1	6	14	25-May-16	20	Red	k	1	0.6505	B	C	b	r	2000	1	6	14	25-May-16	21	Red	k	1	0.6124	A	C	b	r	2000	1	6	14	25-May-16	22	Red	l	1	0.6117	D	A	r	b	2000	1	6	14	25-May-16	23	Red	s	1	0.5871	C	B	b	r	2000	1	6	14	25-May-16	24	Red	s	1	0.6047	A	B	b	r	2000	1	6	14	25-May-16	25	Red	s	1	0.62	B	A	r	b	2000	1	6	14	25-May-16	26	Red	l	1	0.5629	B	D	b	r	2000	1	6	14	25-May-16	27	Red	l	1	0.5478	D	A	r	b	2000	1	6	14	25-May-16	28	Red	k	1	0.5813	C	D	r	b	2000	1	6	14	25-May-16	29	Red	k	1	0.6055	B	C	b	r	2000	1	6	14	25-May-16	30	Red	s	1	0.58	B	D	r	b	2000	1	6	14	25-May-16	31	Red	k	1	0.5876	C	A	r	b	2000	1	6	14	25-May-16	32	Red	l	1	0.5481	D	C	r	b	2000	1	6	14	25-May-16	1	blue	s	1	0.5463	B	A	b	r	2000	1	6	14	25-May-16	2	blue	l	1	0.6002	A	D	r	b	2000	1	6	14	25-May-16	3	blue	k	1	0.5851	D	C	r	b	2000	1	6	14	25-May-16	4	blue	a	1	0.5535	C	A	r	b	2000	1	6	14	25-May-16	5	blue	s	1	0.5617	B	D	b	r	2000	1	6	14	25-May-16	6	blue	s	1	0.5763	B	A	b	r	2000	1	6	14	25-May-16	7	blue	a	1	0.5215	A	C	b	r	2000	1	6	14	25-May-16	8	blue	l	1	0.9546	D	A	b	r	2000	1	6	14	25-May-16	9	blue	k	1	0.634	A	C	r	b	2000	1	6	14	25-May-16	10	blue	l	1	0.6181	D	C	b	r	2000	1	6	14	25-May-16	11	blue	l	1	0.5305	B	D	r	b	2000	1	6	14	25-May-16	12	blue	l	1	0.5628	D	A	b	r	2000	1	6	14	25-May-16	13	blue	a	1	0.5321	C	A	r	b	2000	1	6	14	25-May-16	14	blue	k	1	0.5724	C	B	b	r	2000	1	6	14	25-May-16	15	blue	s	1	0.5484	B	D	b	r	2000	1	6	14	25-May-16	16	blue	l	1	0.4848	C	D	r	b	2000	1	6	14	25-May-16	17	blue	s	1	0.6193	C	B	r	b	2000	1	6	14	25-May-16	18	blue	s	1	0.5804	B	A	b	r	2000	1	6	14	25-May-16	19	blue	k	1	0.5632	C	B	b	r	2000	1	6	14	25-May-16	20	blue	k	1	0.5164	C	A	b	r	2000	1	6	14	25-May-16	21	blue	a	1	0.5487	B	A	r	b	2000	1	6	14	25-May-16	22	blue	a	1	0.5237	A	B	b	r	2000	1	6	14	25-May-16	23	blue	a	1	0.5019	B	A	r	b	2000	1	6	14	25-May-16	24	blue	a	1	0.4686	A	D	b	r	2000	1	6	14	25-May-16	25	blue	l	1	0.5397	A	D	r	b	2000	1	6	14	25-May-16	26	blue	k	1	0.6437	D	C	r	b	2000	1	6	14	25-May-16	27	blue	k	1	0.6602	C	D	b	r	2000	1	6	14	25-May-16	28	blue	s	1	0.5889	D	B	r	b	2000	1	6	14	25-May-16	29	blue	a	1	0.5727	B	A	r	b	2000	1	6	14	25-May-16	30	blue	k	1	0.5422	D	C	r	b	2000	1	6	14	25-May-16	31	blue	s	1	0.6856	C	B	r	b	2000	1	6	14	25-May-16	32	blue	l	1	0.5653	D	C	b	r	2000	1	6	14	25-May-16	1	Red	l	1	0.5687	D	A	r	b	900	1	6	14	25-May-16	2	Red	a	1	0.6383	B	A	b	r	900	1	6	14	25-May-16	3	Red	l	1	0.6691	B	D	b	r	900	1	6	14	25-May-16	4	Red	k	1	0.6444	B	C	b	r	900	1	6	14	25-May-16	5	Red	a	1	0.6292	C	A	b	r	900	1	6	14	25-May-16	6	Red	k	1	0.5882	D	C	b	r	900	1	6	14	25-May-16	7	Red	l	1	0.8045	D	B	r	b	900	1	6	14	25-May-16	8	Red	l	1	0.5884	C	D	b	r	900	1	6	14	25-May-16	9	Red	a	1	0.5649	D	A	b	r	900	1	6	14	25-May-16	10	Red	s	1	0.5225	B	A	r	b	900	1	6	14	25-May-16	11	Red	s	1	0.6751	C	B	b	r	900	1	6	14	25-May-16	12	Red	k	1	0.6174	D	C	b	r	900	1	6	14	25-May-16	13	Red	s	1	0.522	D	B	b	r	900	1	6	14	25-May-16	14	Red	k	1	0.4966	C	A	r	b	900	1	6	14	25-May-16	15	Red	s	1	0.503	B	D	r	b	900	1	6	14	25-May-16	16	Red	k	1	0.5517	C	B	r	b	900	1	6	14	25-May-16	17	Red	a	1	0.6135	B	A	b	r	900	1	6	14	25-May-16	18	Red	k	1	0.5879	C	D	r	b	900	1	6	14	25-May-16	19	Red	l	1	0.5487	D	B	r	b	900	1	6	14	25-May-16	20	Red	l	1	0.5246	D	C	r	b	900	1	6	14	25-May-16	21	Red	k	1	0.5163	C	A	r	b	900	1	6	14	25-May-16	22	Red	a	1	0.5462	C	A	b	r	900	1	6	14	25-May-16	23	Red	a	1	0.4904	B	A	b	r	900	1	6	14	25-May-16	24	Red	s	1	0.5207	B	D	r	b	900	1	6	14	25-May-16	25	Red	a	1	0.5199	C	A	b	r	900	1	6	14	25-May-16	26	Red	s	1	0.5182	B	C	r	b	900	1	6	14	25-May-16	27	Red	l	1	0.5112	B	D	b	r	900	1	6	14	25-May-16	28	Red	k	1	0.5099	C	D	r	b	900	1	6	14	25-May-16	29	Red	s	1	0.5249	D	B	b	r	900	1	6	14	25-May-16	30	Red	a	1	0.508	D	A	b	r	900	1	6	14	25-May-16	31	Red	s	1	0.5138	B	C	r	b	900	1	6	14	25-May-16	32	Red	l	1	0.561	C	D	b	r	900	1	6	14	25-May-16	1	blue	s	1	0.5998	C	B	r	b	900	1	6	14	25-May-16	2	blue	l	1	0.5747	D	C	b	r	900	1	6	14	25-May-16	3	blue	a	1	0.5263	A	C	b	r	900	1	6	14	25-May-16	4	blue	l	1	0.5892	A	D	r	b	900	1	6	14	25-May-16	5	blue	a	1	0.6057	B	A	r	b	900	1	6	14	25-May-16	6	blue	k	1	0.604	B	C	r	b	900	1	6	14	25-May-16	7	blue	a	1	0.5635	A	B	b	r	900	1	6	14	25-May-16	8	blue	k	1	0.5788	D	C	r	b	900	1	6	14	25-May-16	9	blue	a	1	0.4969	A	D	b	r	900	1	6	14	25-May-16	10	blue	l	1	0.5447	B	D	r	b	900	1	6	14	25-May-16	11	blue	s	1	0.5515	C	B	r	b	900	1	6	14	25-May-16	12	blue	a	1	0.4786	D	A	r	b	900	1	6	14	25-May-16	13	blue	l	1	0.4636	A	D	r	b	900	1	6	14	25-May-16	14	blue	k	1	0.5184	B	C	r	b	900	1	6	14	25-May-16	15	blue	s	1	0.5326	C	B	r	b	900	1	6	14	25-May-16	16	blue	a	1	0.4757	A	C	b	r	900	1	6	14	25-May-16	17	blue	a	1	0.5382	A	C	b	r	900	1	6	14	25-May-16	18	blue	s	1	0.5212	B	A	b	r	900	1	6	14	25-May-16	19	blue	k	1	0.5611	A	C	r	b	900	1	6	14	25-May-16	20	blue	k	1	0.5036	C	A	b	r	900	1	6	14	25-May-16	21	blue	k	1	0.48	C	A	b	r	900	1	6	14	25-May-16	22	blue	a	0	0.4799	C	B	r	b	900	1	6	14	25-May-16	23	blue	l	1	0.4546	D	B	b	r	900	1	6	14	25-May-16	24	blue	l	1	0.4863	D	C	b	r	900	1	6	14	25-May-16	25	blue	k	1	0.4838	C	A	b	r	900	1	6	14	25-May-16	26	blue	s	1	0.55	B	C	b	r	900	1	6	14	25-May-16	27	blue	a	1	0.5471	C	A	r	b	900	1	6	14	25-May-16	28	blue	s	1	0.5788	B	D	b	r	900	1	6	14	25-May-16	29	blue	l	1	0.5142	D	C	b	r	900	1	6	14	25-May-16	30	blue	l	1	0.4883	A	D	r	b	900	1	6	14	25-May-16	31	blue	k	1	0.4715	C	D	b	r	900	1	6	14	25-May-16	32	blue	s	1	0.4563	A	B	r	b	900	1	6	14	25-May-16	1	Red	l	1	0.4577	A	D	b	r	900	1	6	14	25-May-16	2	Red	k	1	0.5348	C	B	r	b	900	1	6	14	25-May-16	3	Red	s	1	0.5728	B	A	r	b	900	1	6	14	25-May-16	4	Red	a	1	0.4935	A	B	r	b	900	1	6	14	25-May-16	5	Red	k	1	0.5169	A	C	b	r	900	1	6	14	25-May-16	6	Red	s	1	0.4752	D	B	b	r	900	1	6	14	25-May-16	7	Red	s	1	0.6586	B	C	r	b	900	1	6	14	25-May-16	8	Red	l	1	0.5295	D	B	r	b	900	1	6	14	25-May-16	9	Red	l	1	0.5221	D	B	r	b	900	1	6	14	25-May-16	10	Red	k	1	0.536	A	C	b	r	900	1	6	14	25-May-16	11	Red	l	1	0.5439	C	D	b	r	900	1	6	14	25-May-16	12	Red	s	1	0.5523	C	B	b	r	900	1	6	14	25-May-16	13	Red	a	1	0.545	C	A	b	r	900	1	6	14	25-May-16	14	Red	a	1	0.5673	A	D	r	b	900	1	6	14	25-May-16	15	Red	s	1	0.5726	C	B	b	r	900	1	6	14	25-May-16	16	Red	a	1	0.5476	D	A	b	r	900	1	6	14	25-May-16	17	Red	k	1	0.5629	B	C	b	r	900	1	6	14	25-May-16	18	Red	s	1	0.5313	B	A	r	b	900	1	6	14	25-May-16	19	Red	a	1	0.5139	B	A	b	r	900	1	6	14	25-May-16	20	Red	a	1	0.521	A	C	r	b	900	1	6	14	25-May-16	21	Red	l	1	0.5108	D	C	r	b	900	1	6	14	25-May-16	22	Red	k	1	0.4871	B	C	b	r	900	1	6	14	25-May-16	23	Red	k	1	0.6291	A	C	b	r	900	1	6	14	25-May-16	24	Red	s	1	0.5557	C	B	b	r	900	1	6	14	25-May-16	25	Red	k	1	0.6043	C	A	r	b	900	1	6	14	25-May-16	26	Red	l	1	0.5938	A	D	b	r	900	1	6	14	25-May-16	27	Red	a	1	0.5307	C	A	b	r	900	1	6	14	25-May-16	28	Red	l	1	0.5119	D	B	r	b	900	1	6	14	25-May-16	29	Red	a	1	0.6574	A	C	r	b	900	1	6	14	25-May-16	30	Red	l	1	0.5675	B	D	b	r	900	1	6	14	25-May-16	31	Red	k	1	0.5517	C	B	r	b	900	1	6	14	25-May-16	32	Red	s	1	0.5497	A	B	b	r	900	1	6	14	25-May-16	1	blue	l	1	0.5218	C	D	r	b	900	1	6	14	25-May-16	2	blue	l	1	0.4807	D	C	b	r	900	1	6	14	25-May-16	3	blue	l	1	0.4882	D	B	b	r	900	1	6	14	25-May-16	4	blue	s	1	0.4697	A	B	r	b	900	1	6	14	25-May-16	5	blue	k	1	0.4699	D	C	r	b	900	1	6	14	25-May-16	6	blue	a	1	0.4445	A	D	b	r	900	1	6	14	25-May-16	7	blue	s	1	0.5236	A	B	r	b	900	1	6	14	25-May-16	8	blue	s	1	0.5701	D	B	r	b	900	1	6	14	25-May-16	9	blue	k	0	0.6735	C	D	r	b	900	1	6	14	25-May-16	10	blue	a	1	0.6804	A	B	b	r	900	1	6	14	25-May-16	11	blue	a	1	0.6392	A	C	b	r	900	1	6	14	25-May-16	12	blue	a	1	0.6137	A	C	b	r	900	1	6	14	25-May-16	13	blue	s	1	0.5823	B	C	b	r	900	1	6	14	25-May-16	14	blue	s	1	0.5334	A	B	r	b	900	1	6	14	25-May-16	15	blue	k	1	0.5071	D	C	r	b	900	1	6	14	25-May-16	16	blue	a	1	0.4907	A	C	b	r	900	1	6	14	25-May-16	17	blue	k	1	0.5056	D	C	r	b	900	1	6	14	25-May-16	18	blue	k	1	0.5144	A	C	r	b	900	1	6	14	25-May-16	19	blue	a	1	0.4889	B	A	r	b	900	1	6	14	25-May-16	20	blue	l	1	0.4719	B	D	r	b	900	1	6	14	25-May-16	21	blue	l	1	0.4467	A	D	r	b	900	1	6	14	25-May-16	22	blue	k	1	0.5192	B	C	r	b	900	1	6	14	25-May-16	23	blue	a	1	0.5989	A	B	b	r	900	1	6	14	25-May-16	24	blue	s	1	0.5261	A	B	r	b	900	1	6	14	25-May-16	25	blue	k	1	0.5503	C	D	b	r	900	1	6	14	25-May-16	26	blue	l	1	0.6441	D	C	b	r	900	1	6	14	25-May-16	27	blue	a	1	0.5553	A	C	b	r	900	1	6	14	25-May-16	28	blue	s	1	0.5958	A	B	r	b	900	1	6	14	25-May-16	29	blue	k	1	0.5773	C	A	b	r	900	1	6	14	25-May-16	30	blue	k	1	0.5289	C	A	b	r	900	1	6	14	25-May-16	31	blue	l	1	0.5067	B	D	r	b	900	1	6	14	25-May-16	32	blue	s	1	0.5372	B	D	b	r	900	1	6	14	25-May-16	1	Red	k	0	0.5462	D	B	b	r	2000	1	6	14	25-May-16	2	Red	k	1	0.7066	C	D	r	b	2000	1	6	14	25-May-16	3	Red	l	1	0.641	A	D	b	r	2000	1	6	14	25-May-16	4	Red	k	1	0.585	C	A	r	b	2000	1	6	14	25-May-16	5	Red	a	1	0.6419	D	A	b	r	2000	1	6	14	25-May-16	6	Red	a	1	0.642	A	D	r	b	2000	1	6	14	25-May-16	7	Red	k	1	0.6017	A	C	b	r	2000	1	6	14	25-May-16	8	Red	a	1	0.5788	A	C	r	b	2000	1	6	14	25-May-16	9	Red	l	1	0.5859	C	D	b	r	2000	1	6	14	25-May-16	10	Red	a	1	0.6261	B	A	b	r	2000	1	6	14	25-May-16	11	Red	l	1	0.5544	D	C	r	b	2000	1	6	14	25-May-16	12	Red	a	1	0.5537	A	B	r	b	2000	1	6	14	25-May-16	13	Red	l	1	0.6194	A	D	b	r	2000	1	6	14	25-May-16	14	Red	s	1	0.7143	C	B	b	r	2000	1	6	14	25-May-16	15	Red	s	1	0.5719	C	B	b	r	2000	1	6	14	25-May-16	16	Red	k	1	0.6117	C	D	r	b	2000	1	6	14	25-May-16	17	Red	l	1	0.5717	A	D	b	r	2000	1	6	14	25-May-16	18	Red	s	1	0.6026	B	C	r	b	2000	1	6	14	25-May-16	19	Red	k	1	0.6046	A	C	b	r	2000	1	6	14	25-May-16	20	Red	l	1	0.5555	D	A	r	b	2000	1	6	14	25-May-16	21	Red	a	1	0.58	B	A	b	r	2000	1	6	14	25-May-16	22	Red	s	1	0.6114	D	B	b	r	2000	1	6	14	25-May-16	23	Red	s	1	0.5963	A	B	b	r	2000	1	6	14	25-May-16	24	Red	l	1	0.5569	D	A	r	b	2000	1	6	14	25-May-16	25	Red	a	1	0.5405	C	A	b	r	2000	1	6	14	25-May-16	26	Red	s	1	0.5481	C	B	b	r	2000	1	6	14	25-May-16	27	Red	s	1	0.5161	B	A	r	b	2000	1	6	14	25-May-16	28	Red	k	1	0.5483	D	C	b	r	2000	1	6	14	25-May-16	29	Red	k	1	0.6203	B	C	b	r	2000	1	6	14	25-May-16	30	Red	k	1	0.5649	D	C	b	r	2000	1	6	14	25-May-16	31	Red	l	1	0.5962	D	C	r	b	2000	1	6	14	25-May-16	32	Red	a	1	0.5818	A	D	r	b	2000	1	6	14	25-May-16	1	blue	l	1	0.5742	D	A	b	r	2000	1	6	14	25-May-16	2	blue	k	1	0.5894	C	A	b	r	2000	1	6	14	25-May-16	3	blue	a	1	0.6306	B	A	r	b	2000	1	6	14	25-May-16	4	blue	s	1	0.6542	D	B	r	b	2000	1	6	14	25-May-16	5	blue	k	1	0.6455	B	C	r	b	2000	1	6	14	25-May-16	6	blue	a	1	0.5897	A	C	b	r	2000	1	6	14	25-May-16	7	blue	k	1	0.6543	D	C	r	b	2000	1	6	14	25-May-16	8	blue	l	1	0.5339	B	D	r	b	2000	1	6	14	25-May-16	9	blue	a	1	0.5584	C	A	r	b	2000	1	6	14	25-May-16	10	blue	k	1	0.5597	B	C	r	b	2000	1	6	14	25-May-16	11	blue	a	1	0.4865	A	B	b	r	2000	1	6	14	25-May-16	12	blue	s	1	0.5995	B	A	b	r	2000	1	6	14	25-May-16	13	blue	s	1	0.5832	B	A	b	r	2000	1	6	14	25-May-16	14	blue	k	1	0.5592	B	C	r	b	2000	1	6	14	25-May-16	15	blue	a	1	0.5908	A	C	b	r	2000	1	6	14	25-May-16	16	blue	l	1	0.5603	D	B	b	r	2000	1	6	14	25-May-16	17	blue	l	1	0.5759	B	D	r	b	2000	1	6	14	25-May-16	18	blue	k	1	0.7442	A	C	r	b	2000	1	6	14	25-May-16	19	blue	a	1	0.5836	A	B	b	r	2000	1	6	14	25-May-16	20	blue	a	1	0.5045	A	B	b	r	2000	1	6	14	25-May-16	21	blue	s	1	0.552	B	D	b	r	2000	1	6	14	25-May-16	22	blue	s	1	0.6727	B	A	b	r	2000	1	6	14	25-May-16	23	blue	l	1	0.6086	A	D	r	b	2000	1	6	14	25-May-16	24	blue	l	1	0.5855	D	C	b	r	2000	1	6	14	25-May-16	25	blue	k	1	0.5847	D	C	r	b	2000	1	6	14	25-May-16	26	blue	a	1	0.553	B	A	r	b	2000	1	6	14	25-May-16	27	blue	s	1	0.6585	C	B	r	b	2000	1	6	14	25-May-16	28	blue	l	1	0.5055	A	D	r	b	2000	1	6	14	25-May-16	29	blue	s	1	0.7774	D	B	r	b	2000	1	6	14	25-May-16	30	blue	k	1	0.6819	C	B	b	r	2000	1	6	14	25-May-16	31	blue	l	1	0.5625	C	D	r	b	2000	1	6	14	25-May-16	32	blue	s	1	0.6035	C	B	r	b	2000	1	6	14	25-May-16	1	Red	l	1	0.5379	D	C	r	b	2000	1	6	14	25-May-16	2	Red	l	1	0.5677	D	C	r	b	2000	1	6	14	25-May-16	3	Red	a	1	0.6017	C	A	b	r	2000	1	6	14	25-May-16	4	Red	s	1	0.6166	B	A	r	b	2000	1	6	14	25-May-16	5	Red	s	1	0.5522	A	B	b	r	2000	1	6	14	25-May-16	6	Red	k	1	0.6013	D	C	b	r	2000	1	6	14	25-May-16	7	Red	l	1	0.5531	A	D	b	r	2000	1	6	14	25-May-16	8	Red	s	1	0.5765	A	B	b	r	2000	1	6	14	25-May-16	9	Red	a	1	0.4336	A	B	r	b	2000	1	6	14	25-May-16	10	Red	l	1	0.4818	A	D	b	r	2000	1	6	14	25-May-16	11	Red	a	1	0.5385	D	A	b	r	2000	1	6	14	25-May-16	12	Red	k	1	0.4809	D	C	b	r	2000	1	6	14	25-May-16	13	Red	a	1	0.5865	A	B	r	b	2000	1	6	14	25-May-16	14	Red	s	1	0.5627	B	C	r	b	2000	1	6	14	25-May-16	15	Red	k	1	0.5377	C	A	r	b	2000	1	6	14	25-May-16	16	Red	l	1	0.5698	D	C	r	b	2000	1	6	14	25-May-16	17	Red	s	1	0.5792	D	B	b	r	2000	1	6	14	25-May-16	18	Red	a	1	0.4495	A	B	r	b	2000	1	6	14	25-May-16	19	Red	l	1	0.5307	D	B	r	b	2000	1	6	14	25-May-16	20	Red	s	1	0.6586	B	A	r	b	2000	1	6	14	25-May-16	21	Red	k	1	0.5948	A	C	b	r	2000	1	6	14	25-May-16	22	Red	a	1	0.4429	A	C	r	b	2000	1	6	14	25-May-16	23	Red	k	1	0.5162	C	A	r	b	2000	1	6	14	25-May-16	24	Red	k	1	0.4513	B	C	b	r	2000	1	6	14	25-May-16	25	Red	l	1	0.5242	D	A	r	b	2000	1	6	14	25-May-16	26	Red	k	1	0.4926	C	D	r	b	2000	1	6	14	25-May-16	27	Red	a	1	0.5231	D	A	b	r	2000	1	6	14	25-May-16	28	Red	a	1	0.6207	A	D	r	b	2000	1	6	14	25-May-16	29	Red	k	1	0.5798	C	B	r	b	2000	1	6	14	25-May-16	30	Red	s	1	0.525	B	D	r	b	2000	1	6	14	25-May-16	31	Red	l	1	0.5008	D	A	r	b	2000	1	6	14	25-May-16	32	Red	s	1	0.5878	D	B	b	r	2000	1	6	14	25-May-16	1	blue	s	1	0.856	C	B	r	b	2000	1	6	14	25-May-16	2	blue	s	1	0.6007	D	B	r	b	2000	1	6	14	25-May-16	3	blue	a	1	0.5369	D	A	r	b	2000	1	6	14	25-May-16	4	blue	k	1	0.5933	C	A	b	r	2000	1	6	14	25-May-16	5	blue	k	1	0.5464	B	C	r	b	2000	1	6	14	25-May-16	6	blue	a	1	0.5616	A	D	b	r	2000	1	6	14	25-May-16	7	blue	l	1	0.5452	D	A	b	r	2000	1	6	14	25-May-16	8	blue	s	1	0.5781	D	B	r	b	2000	1	6	14	25-May-16	9	blue	a	1	0.5056	D	A	r	b	2000	1	6	14	25-May-16	10	blue	l	1	0.5055	B	D	r	b	2000	1	6	14	25-May-16	11	blue	s	1	0.5871	B	C	b	r	2000	1	6	14	25-May-16	12	blue	a	1	0.5379	C	A	r	b	2000	1	6	14	25-May-16	13	blue	s	1	0.5872	B	C	b	r	2000	1	6	14	25-May-16	14	blue	l	1	0.5857	C	D	r	b	2000	1	6	14	25-May-16	15	blue	k	1	0.5874	D	C	r	b	2000	1	6	14	25-May-16	16	blue	k	1	0.5312	D	C	r	b	2000	1	6	14	25-May-16	17	blue	s	1	0.5383	B	D	b	r	2000	1	6	14	25-May-16	18	blue	k	1	0.5381	D	C	r	b	2000	1	6	14	25-May-16	19	blue	l	1	0.5802	D	B	b	r	2000	1	6	14	25-May-16	20	blue	l	1	0.5562	B	D	r	b	2000	1	6	14	25-May-16	21	blue	k	1	0.5145	A	C	r	b	2000	1	6	14	25-May-16	22	blue	k	1	0.5077	C	B	b	r	2000	1	6	14	25-May-16	23	blue	s	1	0.4749	C	B	r	b	2000	1	6	14	25-May-16	24	blue	l	1	0.58	D	C	b	r	2000	1	6	14	25-May-16	25	blue	a	1	0.6602	C	A	r	b	2000	1	6	14	25-May-16	26	blue	a	1	0.6051	A	D	b	r	2000	1	6	14	25-May-16	27	blue	a	1	0.499	A	B	b	r	2000	1	6	14	25-May-16	28	blue	l	1	0.5722	B	D	r	b	2000	1	6	14	25-May-16	29	blue	k	1	0.58	D	C	r	b	2000	1	6	14	25-May-16	30	blue	s	1	0.5555	B	A	b	r	2000	1	6	14	25-May-16	31	blue	l	1	0.5418	D	C	b	r	2000	1	6	14	25-May-16	32	blue	a	1	0.6211	D	A	r	b	2000	1	6	14	25-May-16	1	Red	a	1	0.5005	A	C	r	b	900	1	6	14	25-May-16	2	Red	l	1	0.5308	C	D	b	r	900	1	6	14	25-May-16	3	Red	s	1	0.5201	B	D	r	b	900	1	6	14	25-May-16	4	Red	l	1	0.4882	A	D	b	r	900	1	6	14	25-May-16	5	Red	s	1	0.4958	B	C	r	b	900	1	6	14	25-May-16	6	Red	k	1	0.5266	B	C	b	r	900	1	6	14	25-May-16	7	Red	s	1	0.4294	B	A	r	b	900	1	6	14	25-May-16	8	Red	a	1	0.4681	D	A	b	r	900	1	6	14	25-May-16	9	Red	a	1	0.4911	B	A	b	r	900	1	6	14	25-May-16	10	Red	l	1	0.4828	C	D	b	r	900	1	6	14	25-May-16	11	Red	l	1	0.4977	D	B	r	b	900	1	6	14	25-May-16	12	Red	k	1	0.4715	D	C	b	r	900	1	6	14	25-May-16	13	Red	k	1	0.5118	C	B	r	b	900	1	6	14	25-May-16	14	Red	s	1	0.5041	B	A	r	b	900	1	6	14	25-May-16	15	Red	k	1	0.5496	B	C	b	r	900	1	6	14	25-May-16	16	Red	s	1	0.6142	A	B	b	r	900	1	6	14	25-May-16	17	Red	s	1	0.5338	D	B	b	r	900	1	6	14	25-May-16	18	Red	a	1	0.4767	A	C	r	b	900	1	6	14	25-May-16	19	Red	a	1	0.4287	A	D	r	b	900	1	6	14	25-May-16	20	Red	l	1	0.4196	A	D	b	r	900	1	6	14	25-May-16	21	Red	s	0	0.4497	C	B	r	b	900	1	6	14	25-May-16	22	Red	k	1	0.5212	C	D	r	b	900	1	6	14	25-May-16	23	Red	s	1	0.5143	B	D	r	b	900	1	6	14	25-May-16	24	Red	a	1	0.4871	A	B	r	b	900	1	6	14	25-May-16	25	Red	a	1	0.6072	D	A	b	r	900	1	6	14	25-May-16	26	Red	l	1	0.543	D	B	r	b	900	1	6	14	25-May-16	27	Red	k	1	0.4544	C	A	r	b	900	1	6	14	25-May-16	28	Red	l	1	0.5317	B	D	b	r	900	1	6	14	25-May-16	29	Red	s	1	0.5388	B	A	r	b	900	1	6	14	25-May-16	30	Red	k	1	0.4823	C	A	r	b	900	1	6	14	25-May-16	31	Red	l	1	0.4981	A	D	b	r	900	1	6	14	25-May-16	32	Red	a	1	0.5921	D	A	b	r	900	1	6	14	25-May-16	1	blue	k	1	0.5313	B	C	r	b	900	1	6	14	25-May-16	2	blue	a	1	0.5451	A	B	b	r	900	1	6	14	25-May-16	3	blue	a	1	0.5423	A	D	b	r	900	1	6	14	25-May-16	4	blue	s	1	0.5843	D	B	r	b	900	1	6	14	25-May-16	5	blue	l	1	0.5271	C	D	r	b	900	1	6	14	25-May-16	6	blue	l	1	0.4845	D	C	b	r	900	1	6	14	25-May-16	7	blue	s	1	0.461	C	B	r	b	900	1	6	14	25-May-16	8	blue	s	1	0.4589	B	A	b	r	900	1	6	14	25-May-16	9	blue	k	1	0.4734	C	A	b	r	900	1	6	14	25-May-16	10	blue	s	1	0.4401	C	B	r	b	900	1	6	14	25-May-16	11	blue	s	0	0.5273	A	C	r	b	900	1	6	14	25-May-16	12	blue	a	1	0.5343	B	A	r	b	900	1	6	14	25-May-16	13	blue	s	1	0.6861	A	B	r	b	900	1	6	14	25-May-16	14	blue	k	1	0.4842	B	C	r	b	900	1	6	14	25-May-16	15	blue	l	1	0.5321	D	B	b	r	900	1	6	14	25-May-16	16	blue	a	1	0.523	D	A	r	b	900	1	6	14	25-May-16	17	blue	s	1	0.5622	B	D	b	r	900	1	6	14	25-May-16	18	blue	k	1	0.4806	D	C	r	b	900	1	6	14	25-May-16	19	blue	a	1	0.5608	C	A	r	b	900	1	6	14	25-May-16	20	blue	l	1	0.5438	D	C	b	r	900	1	6	14	25-May-16	21	blue	k	1	0.5119	D	C	r	b	900	1	6	14	25-May-16	22	blue	l	1	0.6226	C	D	r	b	900	1	6	14	25-May-16	23	blue	l	1	0.5252	D	A	b	r	900	1	6	14	25-May-16	24	blue	a	1	0.4926	B	A	r	b	900	1	6	14	25-May-16	25	blue	s	1	0.5387	B	A	b	r	900	1	6	14	25-May-16	26	blue	l	1	0.5219	D	A	b	r	900	1	6	14	25-May-16	27	blue	k	1	0.5473	C	A	b	r	900	1	6	14	25-May-16	28	blue	s	1	0.5052	B	C	b	r	900	1	6	14	25-May-16	29	blue	k	1	0.5059	C	A	b	r	900	1	6	14	25-May-16	30	blue	s	0	0.4652	D	A	r	b	900	1	6	14	25-May-16	31	blue	a	1	0.7345	A	C	b	r	900	1	6	14	25-May-16	32	blue	l	1	0.4706	A	D	r	b	900	1	6	14	25-May-16	1	Red	l	1	0.5176	A	D	b	r	900	1	6	14	25-May-16	2	Red	a	1	0.5248	C	A	b	r	900	1	6	14	25-May-16	3	Red	k	1	0.5544	C	D	r	b	900	1	6	14	25-May-16	4	Red	s	1	0.5691	A	B	b	r	900	1	6	14	25-May-16	5	Red	a	1	0.5599	A	C	r	b	900	1	6	14	25-May-16	6	Red	a	1	0.5113	A	B	r	b	900	1	6	14	25-May-16	7	Red	k	1	0.5357	C	D	r	b	900	1	6	14	25-May-16	8	Red	a	1	0.5742	A	B	r	b	900	1	6	14	25-May-16	9	Red	s	1	0.6462	A	B	b	r	900	1	6	14	25-May-16	10	Red	l	1	0.5745	C	D	b	r	900	1	6	14	25-May-16	11	Red	k	1	0.5245	C	D	r	b	900	1	6	14	25-May-16	12	Red	a	1	0.4997	C	A	b	r	900	1	6	14	25-May-16	13	Red	l	1	0.4833	D	C	r	b	900	1	6	14	25-May-16	14	Red	l	1	0.5383	B	D	b	r	900	1	6	14	25-May-16	15	Red	k	1	0.561	B	C	b	r	900	1	6	14	25-May-16	16	Red	k	1	0.473	B	C	b	r	900	1	6	14	25-May-16	17	Red	k	1	0.4005	C	B	r	b	900	1	6	14	25-May-16	18	Red	l	1	0.534	D	A	r	b	900	1	6	14	25-May-16	19	Red	s	1	0.5344	C	B	b	r	900	1	6	14	25-May-16	20	Red	k	1	0.597	C	D	r	b	900	1	6	14	25-May-16	21	Red	s	1	0.5814	B	D	r	b	900	1	6	14	25-May-16	22	Red	a	1	0.55	B	A	b	r	900	1	6	14	25-May-16	23	Red	s	1	0.5247	A	B	b	r	900	1	6	14	25-May-16	24	Red	l	1	0.4749	A	D	b	r	900	1	6	14	25-May-16	25	Red	s	1	0.5369	B	C	r	b	900	1	6	14	25-May-16	26	Red	a	1	0.4651	A	B	r	b	900	1	6	14	25-May-16	27	Red	l	1	0.4324	D	B	r	b	900	1	6	14	25-May-16	28	Red	s	1	0.6553	C	B	b	r	900	1	6	14	25-May-16	29	Red	s	1	0.5581	B	D	r	b	900	1	6	14	25-May-16	30	Red	a	1	0.4701	A	C	r	b	900	1	6	14	25-May-16	31	Red	k	1	0.493	A	C	b	r	900	1	6	14	25-May-16	32	Red	l	1	0.4757	B	D	b	r	900	1	6	14	25-May-16	1	blue	l	1	0.4636	D	A	b	r	900	1	6	14	25-May-16	2	blue	l	1	0.5185	A	D	r	b	900	1	6	14	25-May-16	3	blue	s	1	0.5084	A	B	r	b	900	1	6	14	25-May-16	4	blue	l	1	0.4842	D	C	b	r	900	1	6	14	25-May-16	5	blue	a	1	0.5625	D	A	r	b	900	1	6	14	25-May-16	6	blue	a	1	0.5391	B	A	r	b	900	1	6	14	25-May-16	7	blue	k	1	0.514	C	D	b	r	900	1	6	14	25-May-16	8	blue	a	1	0.496	B	A	r	b	900	1	6	14	25-May-16	9	blue	s	1	0.5276	C	B	r	b	900	1	6	14	25-May-16	10	blue	k	1	0.5173	C	B	b	r	900	1	6	14	25-May-16	11	blue	l	1	0.5096	A	D	r	b	900	1	6	14	25-May-16	12	blue	l	1	0.5332	B	D	r	b	900	1	6	14	25-May-16	13	blue	k	1	0.517	D	C	r	b	900	1	6	14	25-May-16	14	blue	s	1	0.4674	C	B	r	b	900	1	6	14	25-May-16	15	blue	a	1	0.4754	B	A	r	b	900	1	6	14	25-May-16	16	blue	k	1	0.458	D	C	r	b	900	1	6	14	25-May-16	17	blue	s	1	0.4674	A	B	r	b	900	1	6	14	25-May-16	18	blue	l	1	0.4343	D	C	b	r	900	1	6	14	25-May-16	19	blue	a	1	0.5534	A	C	b	r	900	1	6	14	25-May-16	20	blue	a	1	0.4797	A	B	b	r	900	1	6	14	25-May-16	21	blue	s	1	0.6957	C	B	r	b	900	1	6	14	25-May-16	22	blue	a	1	0.5506	A	C	b	r	900	1	6	14	25-May-16	23	blue	s	1	0.4847	B	A	b	r	900	1	6	14	25-May-16	24	blue	s	1	0.5409	C	B	r	b	900	1	6	14	25-May-16	25	blue	a	1	0.5167	A	D	b	r	900	1	6	14	25-May-16	26	blue	k	1	0.475	D	C	r	b	900	1	6	14	25-May-16	27	blue	k	1	0.4337	C	A	b	r	900	1	6	14	25-May-16	28	blue	k	1	0.5706	C	D	b	r	900	1	6	14	25-May-16	29	blue	l	1	0.5288	D	A	b	r	900	1	6	14	25-May-16	30	blue	l	0	0.5692	B	C	r	b	900	1	6	14	25-May-16	31	blue	s	1	0.6705	C	B	r	b	900	1	6	14	25-May-16	32	blue	l	1	0.5031	D	A	b	r	900	1	6	14	25-May-16	1	Red	l	1	0.605	C	D	b	r	2000	1	6	04	25-May-16	2	Red	a	1	0.5794	D	A	b	r	900	1	6	04	25-May-16	3	Red	a	1	0.4911	A	C	r	b	900	1	6	04	25-May-16	4	Red	s	1	0.6008	A	B	b	r	2000	1	6	04	25-May-16	5	Red	k	1	0.553	C	B	r	b	2000	1	6	04	25-May-16	6	Red	l	1	0.4747	D	C	r	b	900	1	6	04	25-May-16	7	Red	k	1	0.489	C	D	r	b	900	1	6	04	25-May-16	8	Red	a	1	0.481	A	D	r	b	2000	1	6	04	25-May-16	9	Red	a	1	0.5382	C	A	b	r	900	1	6	04	25-May-16	10	Red	k	0	0.56	C	D	b	r	900	1	6	04	25-May-16	11	Red	l	1	0.4949	A	D	b	r	2000	1	6	04	25-May-16	12	Red	a	1	0.543	A	D	r	b	2000	1	6	04	25-May-16	13	Red	s	1	0.5446	A	B	b	r	900	1	6	04	25-May-16	14	Red	l	1	0.5255	B	D	b	r	2000	1	6	04	25-May-16	15	Red	l	1	0.5664	D	C	r	b	900	1	6	04	25-May-16	16	Red	k	1	0.4953	C	A	r	b	2000	1	6	04	25-May-16	17	Red	k	1	0.6054	C	B	r	b	900	1	6	04	25-May-16	18	Red	l	1	0.501	B	D	b	r	900	1	6	04	25-May-16	19	Red	a	1	0.5806	A	D	r	b	900	1	6	04	25-May-16	20	Red	k	1	0.6588	D	C	b	r	900	1	6	04	25-May-16	21	Red	k	1	0.5396	C	B	r	b	2000	1	6	04	25-May-16	22	Red	k	1	0.498	B	C	b	r	900	1	6	04	25-May-16	23	Red	s	1	0.5305	D	B	b	r	2000	1	6	04	25-May-16	24	Red	s	1	0.5463	B	C	r	b	900	1	6	04	25-May-16	25	Red	a	1	0.5689	A	D	r	b	2000	1	6	04	25-May-16	26	Red	k	0	0.5937	B	C	r	b	2000	1	6	04	25-May-16	27	Red	l	1	0.5863	D	C	r	b	2000	1	6	04	25-May-16	28	Red	s	1	0.5625	B	A	r	b	2000	1	6	04	25-May-16	29	Red	k	1	0.578	C	A	r	b	2000	1	6	04	25-May-16	30	Red	a	1	0.5849	A	D	r	b	2000	1	6	04	25-May-16	31	Red	s	1	0.5787	B	D	r	b	900	1	6	04	25-May-16	32	Red	s	1	0.5757	A	B	b	r	900	1	6	04	25-May-16	1	blue	l	1	0.5058	D	B	b	r	900	1	6	04	25-May-16	2	blue	a	1	0.5673	A	C	b	r	900	1	6	04	25-May-16	3	blue	k	1	0.5675	C	B	b	r	900	1	6	04	25-May-16	4	blue	a	1	0.5746	C	A	r	b	2000	1	6	04	25-May-16	5	blue	k	1	0.4948	C	A	b	r	900	1	6	04	25-May-16	6	blue	s	1	0.5814	C	B	r	b	2000	1	6	04	25-May-16	7	blue	l	1	0.4865	D	C	b	r	900	1	6	04	25-May-16	8	blue	a	1	0.5099	D	A	r	b	2000	1	6	04	25-May-16	9	blue	k	1	0.5409	C	B	b	r	2000	1	6	04	25-May-16	10	blue	l	1	0.5657	B	D	r	b	900	1	6	04	25-May-16	11	blue	k	1	0.5321	D	C	r	b	900	1	6	04	25-May-16	12	blue	k	1	0.5083	B	C	r	b	900	1	6	04	25-May-16	13	blue	a	1	0.4356	A	B	b	r	900	1	6	04	25-May-16	14	blue	a	1	0.5228	A	B	b	r	2000	1	6	04	25-May-16	15	blue	a	1	0.5151	A	C	b	r	900	1	6	04	25-May-16	16	blue	l	1	0.4754	C	D	r	b	2000	1	6	04	25-May-16	17	blue	s	1	0.4979	A	B	r	b	900	1	6	04	25-May-16	18	blue	s	1	0.484	B	A	b	r	2000	1	6	04	25-May-16	19	blue	k	1	0.4981	B	C	r	b	2000	1	6	04	25-May-16	20	blue	l	1	0.5225	D	A	b	r	2000	1	6	04	25-May-16	21	blue	l	1	0.4671	D	A	b	r	2000	1	6	04	25-May-16	22	blue	s	1	0.5706	B	C	b	r	2000	1	6	04	25-May-16	23	blue	s	1	0.5632	C	B	r	b	900	1	6	04	25-May-16	24	blue	k	1	0.5856	C	B	b	r	2000	1	6	04	25-May-16	25	blue	l	1	0.522	C	D	r	b	900	1	6	04	25-May-16	26	blue	l	1	0.5206	D	C	b	r	2000	1	6	04	25-May-16	27	blue	s	1	0.5626	C	B	r	b	900	1	6	04	25-May-16	28	blue	k	1	0.5381	C	A	b	r	2000	1	6	04	25-May-16	29	blue	s	1	0.5304	A	B	r	b	900	1	6	04	25-May-16	30	blue	s	1	0.5045	B	C	b	r	2000	1	6	04	25-May-16	31	blue	a	1	0.5293	D	A	r	b	2000	1	6	04	25-May-16	32	blue	a	1	0.554	A	C	b	r	900	1	6	04	25-May-16	1	Red	l	1	0.5004	D	A	r	b	2000	1	6	04	25-May-16	2	Red	k	1	0.6118	B	C	b	r	2000	1	6	04	25-May-16	3	Red	a	1	0.507	A	D	r	b	2000	1	6	04	25-May-16	4	Red	a	1	0.4198	A	C	r	b	2000	1	6	04	25-May-16	5	Red	a	1	0.4449	A	D	r	b	900	1	6	04	25-May-16	6	Red	s	1	0.5337	D	B	b	r	900	1	6	04	25-May-16	7	Red	l	1	0.5712	B	D	b	r	2000	1	6	04	25-May-16	8	Red	k	1	0.5951	D	C	b	r	2000	1	6	04	25-May-16	9	Red	a	1	0.4433	A	B	r	b	900	1	6	04	25-May-16	10	Red	k	1	0.524	C	D	r	b	2000	1	6	04	25-May-16	11	Red	l	1	0.4686	A	D	b	r	2000	1	6	04	25-May-16	12	Red	l	1	0.5388	D	A	r	b	900	1	6	04	25-May-16	13	Red	s	1	0.6831	C	B	b	r	2000	1	6	04	25-May-16	14	Red	l	1	0.4524	D	A	r	b	900	1	6	04	25-May-16	15	Red	l	1	0.4906	D	A	r	b	900	1	6	04	25-May-16	16	Red	a	1	0.4983	D	A	b	r	900	1	6	04	25-May-16	17	Red	l	1	0.5437	D	B	r	b	2000	1	6	04	25-May-16	18	Red	l	1	0.5054	D	A	r	b	900	1	6	04	25-May-16	19	Red	k	1	0.5675	A	C	b	r	900	1	6	04	25-May-16	20	Red	k	1	0.5349	C	A	r	b	900	1	6	04	25-May-16	21	Red	s	1	0.5331	C	B	b	r	900	1	6	04	25-May-16	22	Red	s	1	0.6307	B	D	r	b	2000	1	6	04	25-May-16	23	Red	a	1	0.525	A	B	r	b	2000	1	6	04	25-May-16	24	Red	a	1	0.5497	A	C	r	b	900	1	6	04	25-May-16	25	Red	l	0	0.6762	A	C	b	r	900	1	6	04	25-May-16	26	Red	s	1	0.4843	B	C	r	b	900	1	6	04	25-May-16	27	Red	s	1	0.4447	B	A	r	b	900	1	6	04	25-May-16	28	Red	k	1	0.5233	D	C	b	r	900	1	6	04	25-May-16	29	Red	a	1	0.627	B	A	b	r	2000	1	6	04	25-May-16	30	Red	s	1	0.6419	C	B	b	r	2000	1	6	04	25-May-16	31	Red	k	1	0.5218	A	C	b	r	2000	1	6	04	25-May-16	32	Red	s	1	0.4909	B	C	r	b	2000	1	6	04	25-May-16	1	blue	s	1	0.5174	B	D	b	r	900	1	6	04	25-May-16	2	blue	s	1	0.5143	B	C	b	r	900	1	6	04	25-May-16	3	blue	k	1	0.5148	A	C	r	b	2000	1	6	04	25-May-16	4	blue	a	1	0.5143	C	A	r	b	900	1	6	04	25-May-16	5	blue	k	1	0.5455	C	A	b	r	2000	1	6	04	25-May-16	6	blue	a	1	0.5367	C	A	r	b	900	1	6	04	25-May-16	7	blue	l	1	0.5938	C	D	r	b	2000	1	6	04	25-May-16	8	blue	a	1	0.6014	D	A	r	b	2000	1	6	04	25-May-16	9	blue	a	1	0.5292	C	A	r	b	900	1	6	04	25-May-16	10	blue	s	1	0.5626	D	B	r	b	2000	1	6	04	25-May-16	11	blue	l	1	0.5226	A	D	r	b	2000	1	6	04	25-May-16	12	blue	a	1	0.6328	A	D	b	r	2000	1	6	04	25-May-16	13	blue	l	1	0.5464	D	C	b	r	2000	1	6	04	25-May-16	14	blue	l	1	0.4977	A	D	r	b	2000	1	6	04	25-May-16	15	blue	l	1	0.5542	B	D	r	b	900	1	6	04	25-May-16	16	blue	k	1	0.5547	C	D	b	r	900	1	6	04	25-May-16	17	blue	k	1	0.5603	C	D	b	r	2000	1	6	04	25-May-16	18	blue	l	1	0.474	D	A	b	r	900	1	6	04	25-May-16	19	blue	s	1	0.5521	A	B	r	b	2000	1	6	04	25-May-16	20	blue	s	1	0.6155	A	B	r	b	900	1	6	04	25-May-16	21	blue	a	1	0.5752	B	A	r	b	900	1	6	04	25-May-16	22	blue	k	1	0.5909	C	B	b	r	900	1	6	04	25-May-16	23	blue	l	1	0.5348	B	D	r	b	900	1	6	04	25-May-16	24	blue	l	1	0.5324	B	D	r	b	900	1	6	04	25-May-16	25	blue	a	1	0.5649	C	A	r	b	2000	1	6	04	25-May-16	26	blue	s	1	0.532	D	B	r	b	2000	1	6	04	25-May-16	27	blue	k	1	0.5408	B	C	r	b	2000	1	6	04	25-May-16	28	blue	s	1	0.5636	B	A	b	r	2000	1	6	04	25-May-16	29	blue	k	1	0.5331	C	A	b	r	900	1	6	04	25-May-16	30	blue	a	1	0.5237	A	C	b	r	2000	1	6	04	25-May-16	31	blue	s	1	0.5633	B	A	b	r	900	1	6	04	25-May-16	32	blue	k	1	0.57	A	C	r	b	900	1	6	04	25-May-16	1	Red	a	1	0.5529	C	A	b	r	900	1	6	04	25-May-16	2	Red	a	1	0.4634	A	D	r	b	2000	1	6	04	25-May-16	3	Red	k	1	0.5424	C	D	r	b	900	1	6	04	25-May-16	4	Red	s	1	0.5735	A	B	b	r	900	1	6	04	25-May-16	5	Red	s	1	0.6036	C	B	b	r	900	1	6	04	25-May-16	6	Red	s	1	0.5227	B	A	r	b	2000	1	6	04	25-May-16	7	Red	l	1	0.4977	D	B	r	b	900	1	6	04	25-May-16	8	Red	l	1	0.5285	D	C	r	b	900	1	6	04	25-May-16	9	Red	s	1	0.5266	D	B	b	r	2000	1	6	04	25-May-16	10	Red	l	1	0.5099	D	A	r	b	2000	1	6	04	25-May-16	11	Red	k	1	0.5744	C	B	r	b	2000	1	6	04	25-May-16	12	Red	a	1	0.4932	A	B	r	b	900	1	6	04	25-May-16	13	Red	k	1	0.4917	B	C	b	r	2000	1	6	04	25-May-16	14	Red	a	1	0.5086	A	D	r	b	2000	1	6	04	25-May-16	15	Red	a	1	0.492	A	D	r	b	2000	1	6	04	25-May-16	16	Red	l	1	0.5163	D	B	r	b	2000	1	6	04	25-May-16	17	Red	a	1	0.5082	A	C	r	b	900	1	6	04	25-May-16	18	Red	k	1	0.5874	C	B	r	b	2000	1	6	04	25-May-16	19	Red	l	1	0.5619	D	C	r	b	900	1	6	04	25-May-16	20	Red	a	1	0.5287	D	A	b	r	2000	1	6	04	25-May-16	21	Red	k	1	0.585	A	C	b	r	900	1	6	04	25-May-16	22	Red	s	1	0.5605	B	C	r	b	900	1	6	04	25-May-16	23	Red	a	1	0.5587	A	D	r	b	900	1	6	04	25-May-16	24	Red	k	1	0.5603	B	C	b	r	900	1	6	04	25-May-16	25	Red	s	1	0.5266	D	B	b	r	2000	1	6	04	25-May-16	26	Red	l	1	0.5993	C	D	b	r	900	1	6	04	25-May-16	27	Red	k	1	0.5896	C	A	r	b	2000	1	6	04	25-May-16	28	Red	l	1	0.596	A	D	b	r	2000	1	6	04	25-May-16	29	Red	s	1	0.5866	C	B	b	r	900	1	6	04	25-May-16	30	Red	k	1	0.5625	D	C	b	r	900	1	6	04	25-May-16	31	Red	s	1	0.5789	B	C	r	b	2000	1	6	04	25-May-16	32	Red	l	1	0.5295	A	D	b	r	2000	1	6	04	25-May-16	1	blue	k	1	0.4995	C	D	b	r	900	1	6	04	25-May-16	2	blue	a	1	0.5863	C	A	r	b	2000	1	6	04	25-May-16	3	blue	k	1	0.5372	B	C	r	b	900	1	6	04	25-May-16	4	blue	a	1	0.5121	D	A	r	b	900	1	6	04	25-May-16	5	blue	a	1	0.5593	C	A	r	b	900	1	6	04	25-May-16	6	blue	a	1	0.5669	A	B	b	r	900	1	6	04	25-May-16	7	blue	l	1	0.511	D	C	b	r	2000	1	6	04	25-May-16	8	blue	s	1	0.5425	A	B	r	b	900	1	6	04	25-May-16	9	blue	s	1	0.5578	B	D	b	r	2000	1	6	04	25-May-16	10	blue	a	1	0.5483	D	A	r	b	900	1	6	04	25-May-16	11	blue	k	1	0.5233	B	C	r	b	2000	1	6	04	25-May-16	12	blue	a	1	0.7238	B	A	r	b	2000	1	6	04	25-May-16	13	blue	s	1	0.5483	B	C	b	r	2000	1	6	04	25-May-16	14	blue	s	1	0.4937	B	D	b	r	2000	1	6	04	25-May-16	15	blue	a	1	0.461	A	B	b	r	2000	1	6	04	25-May-16	16	blue	l	1	0.4519	A	D	r	b	900	1	6	04	25-May-16	17	blue	k	1	0.5322	B	C	r	b	2000	1	6	04	25-May-16	18	blue	k	1	0.5009	B	C	r	b	2000	1	6	04	25-May-16	19	blue	s	1	0.6279	D	B	r	b	900	1	6	04	25-May-16	20	blue	k	1	0.5384	B	C	r	b	900	1	6	04	25-May-16	21	blue	k	1	0.5944	C	A	b	r	900	1	6	04	25-May-16	22	blue	s	1	0.5461	A	B	r	b	900	1	6	04	25-May-16	23	blue	l	1	0.6242	D	A	b	r	2000	1	6	04	25-May-16	24	blue	k	1	0.5123	C	A	b	r	2000	1	6	04	25-May-16	25	blue	s	1	0.569	B	C	b	r	2000	1	6	04	25-May-16	26	blue	l	1	0.5129	D	B	b	r	900	1	6	04	25-May-16	27	blue	a	1	0.5846	D	A	r	b	2000	1	6	04	25-May-16	28	blue	s	1	0.5523	B	D	b	r	900	1	6	04	25-May-16	29	blue	l	1	0.5667	C	D	r	b	2000	1	6	04	25-May-16	30	blue	l	1	0.4471	B	D	r	b	2000	1	6	04	25-May-16	31	blue	l	1	0.487	D	A	b	r	900	1	6	04	25-May-16	32	blue	l	1	0.4946	D	A	b	r	900	1	6	04	25-May-16	1	Red	a	1	0.4563	A	B	r	b	2000	1	6	04	25-May-16	2	Red	s	1	0.5995	D	B	b	r	900	1	6	04	25-May-16	3	Red	l	1	0.5768	D	C	r	b	900	1	6	04	25-May-16	4	Red	a	1	0.5516	A	D	r	b	2000	1	6	04	25-May-16	5	Red	l	1	0.4864	D	C	r	b	2000	1	6	04	25-May-16	6	Red	s	1	0.6621	C	B	b	r	900	1	6	04	25-May-16	7	Red	l	1	0.5574	B	D	b	r	900	1	6	04	25-May-16	8	Red	s	1	0.5646	B	D	r	b	2000	1	6	04	25-May-16	9	Red	s	1	0.5247	B	C	r	b	900	1	6	04	25-May-16	10	Red	a	1	0.4838	B	A	b	r	900	1	6	04	25-May-16	11	Red	k	0	0.6102	C	D	b	r	2000	1	6	04	25-May-16	12	Red	s	0	0.602	B	C	b	r	2000	1	6	04	25-May-16	13	Red	k	1	0.5242	C	B	r	b	900	1	6	04	25-May-16	14	Red	a	1	0.5388	A	B	r	b	2000	1	6	04	25-May-16	15	Red	s	1	0.6496	D	B	b	r	2000	1	6	04	25-May-16	16	Red	k	1	0.6099	A	C	b	r	900	1	6	04	25-May-16	17	Red	k	1	0.5527	C	A	r	b	2000	1	6	04	25-May-16	18	Red	s	0	0.6164	D	C	r	b	900	1	6	04	25-May-16	19	Red	s	1	0.5707	D	B	b	r	900	1	6	04	25-May-16	20	Red	k	1	0.5684	B	C	b	r	2000	1	6	04	25-May-16	21	Red	k	1	0.5765	C	D	r	b	900	1	6	04	25-May-16	22	Red	k	1	0.5999	C	B	r	b	2000	1	6	04	25-May-16	23	Red	a	1	0.5918	A	B	r	b	900	1	6	04	25-May-16	24	Red	l	1	0.5518	C	D	b	r	2000	1	6	04	25-May-16	25	Red	s	1	0.5904	B	A	r	b	2000	1	6	04	25-May-16	26	Red	a	1	0.566	B	A	b	r	2000	1	6	04	25-May-16	27	Red	s	1	0.6631	B	C	r	b	2000	1	6	04	25-May-16	28	Red	k	1	0.5831	A	C	b	r	900	1	6	04	25-May-16	29	Red	a	1	0.6867	A	C	r	b	900	1	6	04	25-May-16	30	Red	l	1	0.5646	D	C	r	b	2000	1	6	04	25-May-16	31	Red	l	1	0.5166	C	D	b	r	900	1	6	04	25-May-16	32	Red	a	1	0.6051	D	A	b	r	900	1	6	04	25-May-16	1	blue	s	1	0.5144	A	B	r	b	900	1	6	04	25-May-16	2	blue	k	1	0.5438	A	C	r	b	2000	1	6	04	25-May-16	3	blue	a	1	0.5517	A	C	b	r	900	1	6	04	25-May-16	4	blue	k	1	0.5745	C	B	b	r	2000	1	6	04	25-May-16	5	blue	a	1	0.5106	B	A	r	b	900	1	6	04	25-May-16	6	blue	k	1	0.5092	A	C	r	b	900	1	6	04	25-May-16	7	blue	a	1	0.5178	B	A	r	b	2000	1	6	04	25-May-16	8	blue	a	1	0.4775	A	C	b	r	2000	1	6	04	25-May-16	9	blue	a	1	0.5099	A	C	b	r	900	1	6	04	25-May-16	10	blue	k	1	0.5192	C	B	b	r	900	1	6	04	25-May-16	11	blue	l	1	0.5326	B	D	r	b	900	1	6	04	25-May-16	12	blue	a	1	0.5411	A	C	b	r	900	1	6	04	25-May-16	13	blue	l	1	0.5556	C	D	r	b	2000	1	6	04	25-May-16	14	blue	k	1	0.5081	C	D	b	r	2000	1	6	04	25-May-16	15	blue	l	1	0.5738	D	A	b	r	900	1	6	04	25-May-16	16	blue	s	1	0.6143	B	D	b	r	900	1	6	04	25-May-16	17	blue	s	1	0.6209	B	C	b	r	2000	1	6	04	25-May-16	18	blue	l	1	0.5007	D	C	b	r	900	1	6	04	25-May-16	19	blue	s	1	0.5309	B	C	b	r	2000	1	6	04	25-May-16	20	blue	k	1	0.5624	C	B	b	r	2000	1	6	04	25-May-16	21	blue	s	1	0.6348	A	B	r	b	900	1	6	04	25-May-16	22	blue	s	1	0.5782	B	D	b	r	900	1	6	04	25-May-16	23	blue	a	1	0.5928	C	A	r	b	2000	1	6	04	25-May-16	24	blue	l	1	0.5608	B	D	r	b	900	1	6	04	25-May-16	25	blue	s	1	0.5701	B	A	b	r	2000	1	6	04	25-May-16	26	blue	a	1	0.5468	A	D	b	r	2000	1	6	04	25-May-16	27	blue	k	1	0.6015	D	C	r	b	900	1	6	04	25-May-16	28	blue	s	1	0.5788	D	B	r	b	2000	1	6	04	25-May-16	29	blue	l	1	0.5209	D	A	b	r	2000	1	6	04	25-May-16	30	blue	l	1	0.5134	D	C	b	r	2000	1	6	04	25-May-16	31	blue	k	1	0.666	D	C	r	b	900	1	6	04	25-May-16	32	blue	l	1	0.5948	B	D	r	b	2000	1	6	04	25-May-16	1	Red	a	1	0.5052	A	B	r	b	2000	1	6	04	25-May-16	2	Red	l	1	0.4563	B	D	b	r	2000	1	6	04	25-May-16	3	Red	l	1	0.5195	D	A	r	b	900	1	6	04	25-May-16	4	Red	l	1	0.5264	D	A	r	b	2000	1	6	04	25-May-16	5	Red	s	1	0.5821	B	D	r	b	2000	1	6	04	25-May-16	6	Red	k	1	0.5013	C	B	r	b	900	1	6	04	25-May-16	7	Red	s	1	0.6207	C	B	b	r	2000	1	6	04	25-May-16	8	Red	l	1	0.4532	C	D	b	r	900	1	6	04	25-May-16	9	Red	s	1	0.5001	B	D	r	b	900	1	6	04	25-May-16	10	Red	s	1	0.6287	C	B	b	r	900	1	6	04	25-May-16	11	Red	a	1	0.5698	A	B	r	b	900	1	6	04	25-May-16	12	Red	k	1	0.6107	B	C	b	r	2000	1	6	04	25-May-16	13	Red	k	1	0.5303	C	D	r	b	900	1	6	04	25-May-16	14	Red	s	1	0.5286	B	A	r	b	900	1	6	04	25-May-16	15	Red	k	1	0.593	A	C	b	r	2000	1	6	04	25-May-16	16	Red	a	1	0.4882	A	D	r	b	2000	1	6	04	25-May-16	17	Red	k	1	0.6968	C	B	r	b	2000	1	6	04	25-May-16	18	Red	l	1	0.5128	D	C	r	b	2000	1	6	04	25-May-16	19	Red	a	1	0.6881	B	A	b	r	2000	1	6	04	25-May-16	20	Red	a	1	0.5284	C	A	b	r	900	1	6	04	25-May-16	21	Red	a	1	0.5059	A	D	r	b	900	1	6	04	25-May-16	22	Red	k	1	0.5272	A	C	b	r	900	1	6	04	25-May-16	23	Red	k	1	0.5102	C	D	r	b	900	1	6	04	25-May-16	24	Red	s	1	0.5427	D	B	b	r	2000	1	6	04	25-May-16	25	Red	a	1	0.5748	A	B	r	b	900	1	6	04	25-May-16	26	Red	l	1	0.5241	D	B	r	b	900	1	6	04	25-May-16	27	Red	l	1	0.5173	D	A	r	b	900	1	6	04	25-May-16	28	Red	l	1	0.475	D	A	r	b	2000	1	6	04	25-May-16	29	Red	s	1	0.4664	B	C	r	b	2000	1	6	04	25-May-16	30	Red	k	1	0.579	C	A	r	b	2000	1	6	04	25-May-16	31	Red	a	1	0.5634	D	A	b	r	2000	1	6	04	25-May-16	32	Red	s	1	0.5872	A	B	b	r	900	1	6	04	25-May-16	1	blue	a	1	0.5079	C	A	r	b	2000	1	6	04	25-May-16	2	blue	k	1	0.5462	A	C	r	b	2000	1	6	04	25-May-16	3	blue	l	1	0.5467	D	C	b	r	2000	1	6	04	25-May-16	4	blue	k	1	0.5212	C	A	b	r	2000	1	6	04	25-May-16	5	blue	s	1	0.5372	A	B	r	b	900	1	6	04	25-May-16	6	blue	k	1	0.562	C	D	b	r	2000	1	6	04	25-May-16	7	blue	a	1	0.5063	A	B	b	r	900	1	6	04	25-May-16	8	blue	a	1	0.5688	B	A	r	b	2000	1	6	04	25-May-16	9	blue	k	1	0.5298	D	C	r	b	2000	1	6	04	25-May-16	10	blue	l	1	0.553	B	D	r	b	2000	1	6	04	25-May-16	11	blue	k	1	0.5694	C	D	b	r	900	1	6	04	25-May-16	12	blue	l	1	0.6097	A	D	r	b	900	1	6	04	25-May-16	13	blue	l	1	0.6557	A	D	r	b	2000	1	6	04	25-May-16	14	blue	a	1	0.5444	A	B	b	r	900	1	6	04	25-May-16	15	blue	s	1	0.5899	B	A	b	r	900	1	6	04	25-May-16	16	blue	l	1	0.6138	A	D	r	b	2000	1	6	04	25-May-16	17	blue	s	1	0.5673	C	B	r	b	2000	1	6	04	25-May-16	18	blue	k	1	0.5659	C	D	b	r	900	1	6	04	25-May-16	19	blue	s	1	0.5899	B	D	b	r	2000	1	6	04	25-May-16	20	blue	s	1	0.574	B	C	b	r	2000	1	6	04	25-May-16	21	blue	a	1	0.5503	A	D	b	r	900	1	6	04	25-May-16	22	blue	l	1	0.5253	B	D	r	b	900	1	6	04	25-May-16	23	blue	a	1	0.6052	A	D	b	r	2000	1	6	04	25-May-16	24	blue	k	1	0.5482	C	A	b	r	900	1	6	04	25-May-16	25	blue	a	1	0.6352	A	D	b	r	2000	1	6	04	25-May-16	26	blue	a	1	0.6035	A	D	b	r	900	1	6	04	25-May-16	27	blue	l	1	0.6186	A	D	r	b	900	1	6	04	25-May-16	28	blue	s	1	0.6425	D	B	r	b	900	1	6	04	25-May-16	29	blue	k	1	0.6974	D	C	r	b	900	1	6	04	25-May-16	30	blue	s	1	0.6478	D	B	r	b	2000	1	6	04	25-May-16	31	blue	s	1	0.5522	B	C	b	r	900	1	6	04	25-May-16	32	blue	l	1	0.5745	D	C	b	r	900	1	6	04	25-May-16	1	Red	a	1	0.6112	C	A	b	r	2000	1	6	04	25-May-16	2	Red	s	1	0.5686	B	A	r	b	2000	1	6	04	25-May-16	3	Red	k	1	0.6338	D	C	b	r	900	1	6	04	25-May-16	4	Red	k	1	0.7522	C	A	r	b	900	1	6	04	25-May-16	5	Red	a	1	0.56	A	D	r	b	900	1	6	04	25-May-16	6	Red	s	1	0.5762	B	A	r	b	2000	1	6	04	25-May-16	7	Red	k	1	0.5107	B	C	b	r	2000	1	6	04	25-May-16	8	Red	s	1	0.5283	C	B	b	r	2000	1	6	04	25-May-16	9	Red	l	1	0.5833	C	D	b	r	2000	1	6	04	25-May-16	10	Red	k	1	0.5909	D	C	b	r	2000	1	6	04	25-May-16	11	Red	l	1	0.5274	B	D	b	r	900	1	6	04	25-May-16	12	Red	l	1	0.5189	C	D	b	r	900	1	6	04	25-May-16	13	Red	a	1	0.5422	B	A	b	r	2000	1	6	04	25-May-16	14	Red	l	1	0.4473	D	B	r	b	2000	1	6	04	25-May-16	15	Red	a	1	0.5349	D	A	b	r	900	1	6	04	25-May-16	16	Red	s	1	0.59	B	D	r	b	900	1	6	04	25-May-16	17	Red	a	1	0.5572	D	A	b	r	2000	1	6	04	25-May-16	18	Red	l	1	0.4688	B	D	b	r	2000	1	6	04	25-May-16	19	Red	a	1	0.5965	A	D	r	b	2000	1	6	04	25-May-16	20	Red	k	1	0.5806	D	C	b	r	2000	1	6	04	25-May-16	21	Red	l	1	0.5085	D	C	r	b	900	1	6	04	25-May-16	22	Red	l	1	0.4993	D	B	r	b	2000	1	6	04	25-May-16	23	Red	s	1	0.589	B	C	r	b	2000	1	6	04	25-May-16	24	Red	k	1	0.5079	B	C	b	r	900	1	6	04	25-May-16	25	Red	k	1	0.5626	D	C	b	r	900	1	6	04	25-May-16	26	Red	s	1	0.6363	B	C	r	b	900	1	6	04	25-May-16	27	Red	k	1	0.6178	C	A	r	b	2000	1	6	04	25-May-16	28	Red	s	1	0.5214	A	B	b	r	900	1	6	04	25-May-16	29	Red	a	1	0.6106	A	D	r	b	900	1	6	04	25-May-16	30	Red	s	1	0.6239	C	B	b	r	900	1	6	04	25-May-16	31	Red	a	1	0.6468	A	C	r	b	900	1	6	04	25-May-16	32	Red	NaN	NaN	0	D	C	r	b	900	1	6	04	25-May-16	1	blue	l	1	0.4976	D	A	b	r	2000	1	6	04	25-May-16	2	blue	l	1	0.496	D	B	b	r	900	1	6	04	25-May-16	3	blue	l	1	0.5514	D	C	b	r	900	1	6	04	25-May-16	4	blue	s	1	0.5912	B	A	b	r	900	1	6	04	25-May-16	5	blue	k	1	0.5732	C	D	b	r	900	1	6	04	25-May-16	6	blue	s	1	0.5731	A	B	r	b	2000	1	6	04	25-May-16	7	blue	a	1	0.5571	D	A	r	b	900	1	6	04	25-May-16	8	blue	k	1	0.5638	C	A	b	r	900	1	6	04	25-May-16	9	blue	l	1	0.5388	B	D	r	b	900	1	6	04	25-May-16	10	blue	k	1	0.5623	C	A	b	r	2000	1	6	04	25-May-16	11	blue	k	1	0.5476	C	B	b	r	2000	1	6	04	25-May-16	12	blue	k	1	0.4596	C	D	b	r	2000	1	6	04	25-May-16	13	blue	a	1	0.5458	D	A	r	b	2000	1	6	04	25-May-16	14	blue	l	1	0.5799	C	D	r	b	900	1	6	04	25-May-16	15	blue	k	1	0.5701	B	C	r	b	900	1	6	04	25-May-16	16	blue	k	1	0.57	D	C	r	b	2000	1	6	04	25-May-16	17	blue	a	1	0.5525	B	A	r	b	900	1	6	04	25-May-16	18	blue	s	1	0.706	B	C	b	r	2000	1	6	04	25-May-16	19	blue	l	1	0.5205	A	D	r	b	2000	1	6	04	25-May-16	20	blue	k	1	0.5697	B	C	r	b	900	1	6	04	25-May-16	21	blue	a	1	0.6015	A	D	b	r	900	1	6	04	25-May-16	22	blue	s	1	0.6557	D	B	r	b	900	1	6	04	25-May-16	23	blue	s	1	0.6225	D	B	r	b	900	1	6	04	25-May-16	24	blue	s	1	0.6881	A	B	r	b	900	1	6	04	25-May-16	25	blue	a	1	0.654	B	A	r	b	2000	1	6	04	25-May-16	26	blue	s	1	0.5818	D	B	r	b	2000	1	6	04	25-May-16	27	blue	s	1	0.5658	B	D	b	r	2000	1	6	04	25-May-16	28	blue	l	1	0.5756	D	C	b	r	2000	1	6	04	25-May-16	29	blue	a	1	0.6074	A	C	b	r	900	1	6	04	25-May-16	30	blue	a	1	0.5729	A	C	b	r	2000	1	6	04	25-May-16	31	blue	l	1	0.5985	D	A	b	r	2000	1	6	04	25-May-16	32	blue	a	1	0.6611	A	D	b	r	2000	1	6	04	25-May-16	1	Red	s	1	0.7148	C	B	b	r	900	1	6	04	25-May-16	2	Red	a	1	0.6011	C	A	b	r	2000	1	6	04	25-May-16	3	Red	s	1	0.5753	B	D	r	b	2000	1	6	04	25-May-16	4	Red	k	1	0.6089	C	A	r	b	2000	1	6	04	25-May-16	5	Red	l	1	0.5279	D	B	r	b	900	1	6	04	25-May-16	6	Red	a	1	0.5349	B	A	b	r	900	1	6	04	25-May-16	7	Red	k	1	0.5978	B	C	b	r	900	1	6	04	25-May-16	8	Red	l	1	0.628	B	D	b	r	2000	1	6	04	25-May-16	9	Red	k	1	0.5404	A	C	b	r	900	1	6	04	25-May-16	10	Red	l	1	0.6117	D	C	r	b	900	1	6	04	25-May-16	11	Red	a	1	0.6494	A	D	r	b	900	1	6	04	25-May-16	12	Red	k	1	0.6569	B	C	b	r	900	1	6	04	25-May-16	13	Red	l	1	0.6413	C	D	b	r	2000	1	6	04	25-May-16	14	Red	s	1	0.553	C	B	b	r	2000	1	6	04	25-May-16	15	Red	s	1	0.5602	C	B	b	r	2000	1	6	04	25-May-16	16	Red	l	1	0.4965	D	A	r	b	2000	1	6	04	25-May-16	17	Red	k	1	0.5146	C	D	r	b	2000	1	6	04	25-May-16	18	Red	a	1	0.5609	B	A	b	r	900	1	6	04	25-May-16	19	Red	a	1	0.5777	B	A	b	r	900	1	6	04	25-May-16	20	Red	l	1	0.585	B	D	b	r	2000	1	6	04	25-May-16	21	Red	k	0	0.6641	D	B	b	r	900	1	6	04	25-May-16	22	Red	a	1	0.6081	D	A	b	r	2000	1	6	04	25-May-16	23	Red	k	1	0.6224	C	A	r	b	900	1	6	04	25-May-16	24	Red	s	1	0.5485	B	C	r	b	900	1	6	04	25-May-16	25	Red	k	1	0.6055	B	C	b	r	2000	1	6	04	25-May-16	26	Red	a	1	0.5414	A	B	r	b	2000	1	6	04	25-May-16	27	Red	l	1	0.5003	D	C	r	b	900	1	6	04	25-May-16	28	Red	l	1	0.5987	B	D	b	r	900	1	6	04	25-May-16	29	Red	s	1	0.5812	B	C	r	b	2000	1	6	04	25-May-16	30	Red	s	1	0.5798	B	D	r	b	900	1	6	04	25-May-16	31	Red	k	1	0.5803	C	B	r	b	2000	1	6	04	25-May-16	32	Red	a	1	0.5395	B	A	b	r	2000	1	6	04	25-May-16	1	blue	l	1	0.4917	A	D	r	b	2000	1	6	04	25-May-16	2	blue	k	1	0.5232	C	A	b	r	900	1	6	04	25-May-16	3	blue	k	1	0.6736	C	D	b	r	900	1	6	04	25-May-16	4	blue	a	1	0.6319	A	B	b	r	2000	1	6	04	25-May-16	5	blue	l	1	0.5208	A	D	r	b	900	1	6	04	25-May-16	6	blue	l	1	0.5436	C	D	r	b	900	1	6	04	25-May-16	7	blue	a	1	0.5829	D	A	r	b	900	1	6	04	25-May-16	8	blue	l	1	0.606	A	D	r	b	900	1	6	04	25-May-16	9	blue	a	1	0.5899	B	A	r	b	900	1	6	04	25-May-16	10	blue	l	1	0.5402	A	D	r	b	900	1	6	04	25-May-16	11	blue	a	1	0.549	C	A	r	b	2000	1	6	04	25-May-16	12	blue	a	1	0.4771	B	A	r	b	2000	1	6	04	25-May-16	13	blue	l	1	0.4692	D	A	b	r	2000	1	6	04	25-May-16	14	blue	l	1	0.4938	B	D	r	b	2000	1	6	04	25-May-16	15	blue	s	1	0.5259	B	C	b	r	2000	1	6	04	25-May-16	16	blue	k	1	0.5088	C	A	b	r	2000	1	6	04	25-May-16	17	blue	l	1	0.4943	D	A	b	r	2000	1	6	04	25-May-16	18	blue	a	1	0.5738	A	D	b	r	2000	1	6	04	25-May-16	19	blue	s	1	0.5578	D	B	r	b	900	1	6	04	25-May-16	20	blue	k	0	0.6847	B	A	b	r	900	1	6	04	25-May-16	21	blue	k	1	0.6198	C	D	b	r	2000	1	6	04	25-May-16	22	blue	k	1	0.5478	B	C	r	b	900	1	6	04	25-May-16	23	blue	s	1	0.5401	A	B	r	b	900	1	6	04	25-May-16	24	blue	s	1	0.5703	B	C	b	r	2000	1	6	04	25-May-16	25	blue	k	1	0.5874	B	C	r	b	2000	1	6	04	25-May-16	26	blue	s	1	0.5795	B	A	b	r	2000	1	6	04	25-May-16	27	blue	s	1	0.4989	B	D	b	r	2000	1	6	04	25-May-16	28	blue	a	1	0.524	A	D	b	r	900	1	6	04	25-May-16	29	blue	k	1	0.5937	B	C	r	b	2000	1	6	04	25-May-16	30	blue	a	1	0.5712	D	A	r	b	900	1	6	04	25-May-16	31	blue	s	1	0.6102	D	B	r	b	900	1	6	04	25-May-16	32	blue	k	1	0.6007	D	C	r	b	900	1	6	04	25-May-16	1	Red	k	0	0.5758	C	B	b	r	900	1	6	04	25-May-16	2	Red	a	1	0.6034	D	A	b	r	2000	1	6	04	25-May-16	3	Red	s	1	0.5247	B	C	r	b	900	1	6	04	25-May-16	4	Red	s	1	0.5553	B	A	r	b	2000	1	6	04	25-May-16	5	Red	a	1	0.5632	B	A	b	r	2000	1	6	04	25-May-16	6	Red	l	1	0.6346	C	D	b	r	900	1	6	04	25-May-16	7	Red	s	1	0.6506	C	B	b	r	900	1	6	04	25-May-16	8	Red	l	1	0.6513	C	D	b	r	2000	1	6	04	25-May-16	9	Red	s	1	0.5624	B	C	r	b	900	1	6	04	25-May-16	10	Red	k	1	0.5853	D	C	b	r	2000	1	6	04	25-May-16	11	Red	k	1	0.5224	D	C	b	r	900	1	6	04	25-May-16	12	Red	a	1	0.5691	A	D	r	b	900	1	6	04	25-May-16	13	Red	a	1	0.8311	C	A	b	r	900	1	6	04	25-May-16	14	Red	l	1	0.5992	C	D	b	r	2000	1	6	04	25-May-16	15	Red	l	1	0.5116	D	A	r	b	2000	1	6	04	25-May-16	16	Red	k	1	0.6242	A	C	b	r	2000	1	6	04	25-May-16	17	Red	k	1	0.5213	B	C	b	r	2000	1	6	04	25-May-16	18	Red	s	1	0.5212	B	A	r	b	2000	1	6	04	25-May-16	19	Red	k	1	0.6081	A	C	b	r	900	1	6	04	25-May-16	20	Red	s	1	0.5835	D	B	b	r	2000	1	6	04	25-May-16	21	Red	l	1	0.5603	D	C	r	b	2000	1	6	04	25-May-16	22	Red	l	1	0.4888	A	D	b	r	900	1	6	04	25-May-16	23	Red	k	1	0.5752	B	C	b	r	900	1	6	04	25-May-16	24	Red	s	0	0.615	D	C	b	r	2000	1	6	04	25-May-16	25	Red	a	1	0.5593	A	C	r	b	900	1	6	04	25-May-16	26	Red	s	1	0.5985	B	D	r	b	2000	1	6	04	25-May-16	27	Red	a	1	0.6005	C	A	b	r	2000	1	6	04	25-May-16	28	Red	l	0	0.6883	A	D	r	b	2000	1	6	04	25-May-16	29	Red	l	1	0.5113	D	B	r	b	900	1	6	04	25-May-16	30	Red	k	1	0.5674	A	C	b	r	900	1	6	04	25-May-16	31	Red	a	1	0.5976	A	B	r	b	900	1	6	04	25-May-16	32	Red	l	1	0.6139	D	B	r	b	900	1	6	04	25-May-16	1	blue	s	1	0.5426	D	B	r	b	900	1	6	04	25-May-16	2	blue	s	1	0.5646	C	B	r	b	2000	1	6	04	25-May-16	3	blue	s	1	0.4506	B	C	b	r	2000	1	6	04	25-May-16	4	blue	a	1	0.499	A	C	b	r	2000	1	6	04	25-May-16	5	blue	a	1	0.5085	A	D	b	r	2000	1	6	04	25-May-16	6	blue	a	1	0.6436	C	A	r	b	900	1	6	04	25-May-16	7	blue	l	1	0.643	B	D	r	b	900	1	6	04	25-May-16	8	blue	k	1	0.6496	C	A	b	r	900	1	6	04	25-May-16	9	blue	k	1	0.6165	C	D	b	r	2000	1	6	04	25-May-16	10	blue	l	1	0.5611	D	B	b	r	900	1	6	04	25-May-16	11	blue	l	1	0.575	B	D	r	b	900	1	6	04	25-May-16	12	blue	s	1	0.5742	B	C	b	r	900	1	6	04	25-May-16	13	blue	a	1	0.5748	D	A	r	b	900	1	6	04	25-May-16	14	blue	k	1	0.5418	C	B	b	r	2000	1	6	04	25-May-16	15	blue	s	1	0.6371	B	C	b	r	900	1	6	04	25-May-16	16	blue	l	1	0.5235	D	A	b	r	900	1	6	04	25-May-16	17	blue	k	1	0.5401	C	D	b	r	900	1	6	04	25-May-16	18	blue	l	1	0.5781	A	D	r	b	2000	1	6	04	25-May-16	19	blue	a	1	0.4832	A	D	b	r	900	1	6	04	25-May-16	20	blue	k	1	0.6811	A	C	r	b	2000	1	6	04	25-May-16	21	blue	a	1	0.5941	C	A	r	b	900	1	6	04	25-May-16	22	blue	k	1	0.5371	C	D	b	r	900	1	6	04	25-May-16	23	blue	k	1	0.6325	C	D	b	r	2000	1	6	04	25-May-16	24	blue	s	1	0.5757	A	B	r	b	2000	1	6	04	25-May-16	25	blue	k	1	0.5599	D	C	r	b	900	1	6	04	25-May-16	26	blue	l	1	0.5121	D	C	b	r	2000	1	6	04	25-May-16	27	blue	s	1	0.5991	B	D	b	r	900	1	6	04	25-May-16	28	blue	a	1	0.5819	A	C	b	r	2000	1	6	04	25-May-16	29	blue	l	1	0.575	C	D	r	b	2000	1	6	04	25-May-16	30	blue	s	1	0.6072	C	B	r	b	2000	1	6	04	25-May-16	31	blue	k	0	0.6155	D	B	b	r	2000	1	6	04	25-May-16	32	blue	a	1	0.527	B	A	r	b	2000	1	6	09	1-Jun-16	1	blue	k	1	0.5687	C	D	b	r	2000	1	6	19	1-Jun-16	2	blue	s	1	0.5515	C	B	r	b	2000	1	6	19	1-Jun-16	3	blue	l	1	0.5193	D	C	b	r	2000	1	6	19	1-Jun-16	4	blue	s	1	0.5042	B	C	b	r	2000	1	6	19	1-Jun-16	5	blue	a	1	0.5832	C	A	r	b	2000	1	6	19	1-Jun-16	6	blue	k	1	0.5209	C	B	b	r	2000	1	6	1