SubID	SessionDate	Trial	TargetColor	Response	Correct	RT	leftTargetLetter	rightTargetLetter	leftColors	rightColors	TOA	Mask	SOA	Blocked1	29-May-16	1	blue	k	1	0.7452	C	D	b	r	2000	1	6	11	29-May-16	2	blue	s	1	0.5762	C	B	r	b	2000	1	6	11	29-May-16	3	blue	l	1	0.6176	D	C	b	r	2000	1	6	11	29-May-16	4	blue	s	1	0.817	B	C	b	r	2000	1	6	11	29-May-16	5	blue	a	1	0.6194	C	A	r	b	2000	1	6	11	29-May-16	6	blue	k	1	0.8426	C	B	b	r	2000	1	6	11	29-May-16	7	blue	a	1	0.6347	D	A	r	b	2000	1	6	11	29-May-16	8	blue	l	1	0.627	A	D	r	b	2000	1	6	11	29-May-16	9	blue	k	1	0.6021	A	C	r	b	2000	1	6	11	29-May-16	10	blue	a	1	0.4821	A	B	b	r	2000	1	6	11	29-May-16	11	blue	k	0	0.7462	C	B	r	b	2000	1	6	11	29-May-16	12	blue	k	1	0.5782	C	D	b	r	2000	1	6	11	29-May-16	13	blue	a	1	0.5073	B	A	r	b	2000	1	6	11	29-May-16	14	blue	k	1	0.7638	C	D	b	r	2000	1	6	11	29-May-16	15	blue	s	1	0.6752	C	B	r	b	2000	1	6	11	29-May-16	16	blue	a	1	0.5477	A	C	b	r	2000	1	6	11	29-May-16	17	blue	s	1	1.1241	B	D	b	r	2000	1	6	11	29-May-16	18	blue	a	1	0.4761	D	A	r	b	2000	1	6	11	29-May-16	19	blue	k	0	0.4991	C	B	r	b	2000	1	6	11	29-May-16	20	blue	l	1	0.6919	C	D	r	b	2000	1	6	11	29-May-16	21	blue	l	1	0.739	D	C	b	r	2000	1	6	11	29-May-16	22	blue	k	1	0.596	D	C	r	b	2000	1	6	11	29-May-16	23	blue	k	1	0.5474	D	C	r	b	2000	1	6	11	29-May-16	24	blue	k	1	0.621	C	D	b	r	2000	1	6	11	29-May-16	25	blue	a	1	0.3641	A	C	b	r	2000	1	6	11	29-May-16	26	blue	l	1	0.7006	A	D	r	b	2000	1	6	11	29-May-16	27	blue	s	1	0.5483	B	D	b	r	2000	1	6	11	29-May-16	28	blue	l	1	0.4444	A	D	r	b	2000	1	6	11	29-May-16	29	blue	s	1	0.6773	B	D	b	r	2000	1	6	11	29-May-16	30	blue	l	1	0.5076	C	D	r	b	2000	1	6	11	29-May-16	31	blue	l	1	0.4679	A	D	r	b	2000	1	6	11	29-May-16	32	blue	a	1	0.4532	A	B	b	r	2000	1	6	11	29-May-16	1	Red	k	0	0.871	B	D	r	b	2000	1	6	11	29-May-16	2	Red	s	1	0.6479	B	D	r	b	2000	1	6	11	29-May-16	3	Red	s	1	0.4969	C	B	b	r	2000	1	6	11	29-May-16	4	Red	s	1	0.5293	B	D	r	b	2000	1	6	11	29-May-16	5	Red	s	1	0.4413	B	C	r	b	2000	1	6	11	29-May-16	6	Red	k	1	0.5929	C	B	r	b	2000	1	6	11	29-May-16	7	Red	l	1	0.6241	C	D	b	r	2000	1	6	11	29-May-16	8	Red	a	1	0.4165	A	B	r	b	2000	1	6	11	29-May-16	9	Red	a	1	0.5136	C	A	b	r	2000	1	6	11	29-May-16	10	Red	s	1	0.6425	B	D	r	b	2000	1	6	11	29-May-16	11	Red	k	1	0.4005	B	C	b	r	2000	1	6	11	29-May-16	12	Red	l	1	0.4901	B	D	b	r	2000	1	6	11	29-May-16	13	Red	a	1	0.5546	B	A	b	r	2000	1	6	11	29-May-16	14	Red	k	1	0.8743	D	C	b	r	2000	1	6	11	29-May-16	15	Red	a	1	0.5544	B	A	b	r	2000	1	6	11	29-May-16	16	Red	a	1	0.4418	D	A	b	r	2000	1	6	11	29-May-16	17	Red	s	1	0.4733	A	B	b	r	2000	1	6	11	29-May-16	18	Red	a	1	0.666	A	D	r	b	2000	1	6	11	29-May-16	19	Red	k	1	0.4028	A	C	b	r	2000	1	6	11	29-May-16	20	Red	NaN	99	0	B	C	b	r	2000	1	6	11	29-May-16	21	Red	NaN	NaN	0	C	D	r	b	2000	1	6	11	29-May-16	22	Red	a	1	0.5621	D	A	b	r	2000	1	6	11	29-May-16	23	Red	l	1	0.7558	D	C	r	b	2000	1	6	11	29-May-16	24	Red	k	1	0.6104	C	A	r	b	2000	1	6	11	29-May-16	25	Red	l	1	0.652	C	D	b	r	2000	1	6	11	29-May-16	26	Red	k	1	0.7464	C	D	r	b	2000	1	6	11	29-May-16	27	Red	l	1	0.458	C	D	b	r	2000	1	6	11	29-May-16	28	Red	l	1	0.6353	D	A	r	b	2000	1	6	11	29-May-16	29	Red	a	1	0.8284	D	A	b	r	2000	1	6	11	29-May-16	30	Red	l	1	0.6422	B	D	b	r	2000	1	6	11	29-May-16	31	Red	s	1	0.9796	A	B	b	r	2000	1	6	11	29-May-16	32	Red	l	1	0.5458	D	C	r	b	2000	1	6	11	29-May-16	1	blue	a	1	0.773	C	A	r	b	2000	1	6	11	29-May-16	2	blue	a	1	0.3578	A	B	b	r	2000	1	6	11	29-May-16	3	blue	k	0	0.5582	B	D	b	r	2000	1	6	11	29-May-16	4	blue	a	1	0.4453	A	B	b	r	2000	1	6	11	29-May-16	5	blue	k	1	0.5325	C	A	b	r	2000	1	6	11	29-May-16	6	blue	k	1	0.5021	B	C	r	b	2000	1	6	11	29-May-16	7	blue	s	1	0.3664	D	B	r	b	2000	1	6	11	29-May-16	8	blue	s	1	0.5091	A	B	r	b	2000	1	6	11	29-May-16	9	blue	a	1	0.5258	A	D	b	r	2000	1	6	11	29-May-16	10	blue	l	1	0.5976	A	D	r	b	2000	1	6	11	29-May-16	11	blue	a	0	0.6603	D	B	b	r	2000	1	6	11	29-May-16	12	blue	l	1	0.6381	D	C	b	r	2000	1	6	11	29-May-16	13	blue	a	1	0.4945	A	B	b	r	2000	1	6	11	29-May-16	14	blue	a	1	0.5182	A	B	b	r	2000	1	6	11	29-May-16	15	blue	l	1	0.6456	D	A	b	r	2000	1	6	11	29-May-16	16	blue	s	1	0.5496	C	B	r	b	2000	1	6	11	29-May-16	17	blue	k	1	0.646	C	A	b	r	2000	1	6	11	29-May-16	18	blue	a	1	0.4134	A	B	b	r	2000	1	6	11	29-May-16	19	blue	a	1	0.4373	A	B	b	r	2000	1	6	11	29-May-16	20	blue	k	1	0.5573	C	B	b	r	2000	1	6	11	29-May-16	21	blue	k	1	0.5489	C	A	b	r	2000	1	6	11	29-May-16	22	blue	a	0	0.4697	A	D	r	b	2000	1	6	11	29-May-16	23	blue	k	0	0.6451	B	C	b	r	2000	1	6	11	29-May-16	24	blue	s	1	0.5419	B	A	b	r	2000	1	6	11	29-May-16	25	blue	s	1	0.5327	A	B	r	b	2000	1	6	11	29-May-16	26	blue	l	1	0.7645	D	B	b	r	2000	1	6	11	29-May-16	27	blue	l	1	0.7889	A	D	r	b	2000	1	6	11	29-May-16	28	blue	k	1	0.6613	D	C	r	b	2000	1	6	11	29-May-16	29	blue	k	1	0.4057	C	B	b	r	2000	1	6	11	29-May-16	30	blue	s	1	0.6115	D	B	r	b	2000	1	6	11	29-May-16	31	blue	k	1	0.4747	A	C	r	b	2000	1	6	11	29-May-16	32	blue	l	1	0.5238	C	D	r	b	2000	1	6	11	29-May-16	1	Red	k	0	0.6177	A	B	b	r	2000	1	6	11	29-May-16	2	Red	l	1	0.5283	D	A	r	b	2000	1	6	11	29-May-16	3	Red	k	1	0.6653	C	D	r	b	2000	1	6	11	29-May-16	4	Red	a	1	0.4644	A	C	r	b	2000	1	6	11	29-May-16	5	Red	k	0	0.5134	D	B	b	r	2000	1	6	11	29-May-16	6	Red	s	1	0.5772	A	B	b	r	2000	1	6	11	29-May-16	7	Red	a	1	0.5365	C	A	b	r	2000	1	6	11	29-May-16	8	Red	l	1	0.5205	A	D	b	r	2000	1	6	11	29-May-16	9	Red	k	1	0.554	C	A	r	b	2000	1	6	11	29-May-16	10	Red	l	1	0.4488	C	D	b	r	2000	1	6	11	29-May-16	11	Red	l	1	0.6744	D	B	r	b	2000	1	6	11	29-May-16	12	Red	l	1	0.4888	A	D	b	r	2000	1	6	11	29-May-16	13	Red	a	1	0.4089	A	C	r	b	2000	1	6	11	29-May-16	14	Red	k	1	0.5462	B	C	b	r	2000	1	6	11	29-May-16	15	Red	s	1	0.5942	D	B	b	r	2000	1	6	11	29-May-16	16	Red	l	1	0.6895	D	C	r	b	2000	1	6	11	29-May-16	17	Red	s	1	0.5793	B	C	r	b	2000	1	6	11	29-May-16	18	Red	s	1	0.9549	A	B	b	r	2000	1	6	11	29-May-16	19	Red	k	1	0.7325	B	C	b	r	2000	1	6	11	29-May-16	20	Red	k	1	0.5562	A	C	b	r	2000	1	6	11	29-May-16	21	Red	a	1	0.4195	A	B	r	b	2000	1	6	11	29-May-16	22	Red	a	1	0.5165	B	A	b	r	2000	1	6	11	29-May-16	23	Red	a	1	0.628	A	B	r	b	2000	1	6	11	29-May-16	24	Red	a	1	0.484	D	A	b	r	2000	1	6	11	29-May-16	25	Red	l	1	0.5149	D	A	r	b	2000	1	6	11	29-May-16	26	Red	s	0	0.4752	C	D	r	b	2000	1	6	11	29-May-16	27	Red	k	1	0.5167	D	C	b	r	2000	1	6	11	29-May-16	28	Red	s	1	0.3865	B	D	r	b	2000	1	6	11	29-May-16	29	Red	a	1	0.4839	A	B	r	b	2000	1	6	11	29-May-16	30	Red	k	1	0.677	C	D	r	b	2000	1	6	11	29-May-16	31	Red	s	1	0.6208	B	C	r	b	2000	1	6	11	29-May-16	32	Red	l	1	0.5555	C	D	b	r	2000	1	6	11	29-May-16	1	blue	l	1	0.4909	A	D	r	b	900	1	6	11	29-May-16	2	blue	a	1	0.5211	A	B	b	r	900	1	6	11	29-May-16	3	blue	l	1	0.6405	D	B	b	r	900	1	6	11	29-May-16	4	blue	k	1	0.552	C	B	b	r	900	1	6	11	29-May-16	5	blue	a	1	0.3901	A	C	b	r	900	1	6	11	29-May-16	6	blue	k	1	0.5733	C	D	b	r	900	1	6	11	29-May-16	7	blue	l	1	0.7398	B	D	r	b	900	1	6	11	29-May-16	8	blue	l	1	0.5244	D	C	b	r	900	1	6	11	29-May-16	9	blue	a	1	0.4102	A	D	b	r	900	1	6	11	29-May-16	10	blue	s	1	0.5461	A	B	r	b	900	1	6	11	29-May-16	11	blue	s	1	0.6175	B	C	b	r	900	1	6	11	29-May-16	12	blue	k	1	0.5624	C	D	b	r	900	1	6	11	29-May-16	13	blue	s	1	0.7045	B	D	b	r	900	1	6	11	29-May-16	14	blue	k	1	0.7279	A	C	r	b	900	1	6	11	29-May-16	15	blue	s	1	0.6778	D	B	r	b	900	1	6	11	29-May-16	16	blue	k	1	0.6132	B	C	r	b	900	1	6	11	29-May-16	17	blue	s	0	0.742	A	B	b	r	900	1	6	11	29-May-16	18	blue	k	1	0.6117	D	C	r	b	900	1	6	11	29-May-16	19	blue	l	1	0.7002	B	D	r	b	900	1	6	11	29-May-16	20	blue	l	1	0.5133	C	D	r	b	900	1	6	11	29-May-16	21	blue	s	0	0.5692	A	C	r	b	900	1	6	11	29-May-16	22	blue	a	1	0.6324	A	C	b	r	900	1	6	11	29-May-16	23	blue	a	1	0.5113	A	B	b	r	900	1	6	11	29-May-16	24	blue	s	1	0.8619	D	B	r	b	900	1	6	11	29-May-16	25	blue	a	1	0.7344	A	C	b	r	900	1	6	11	29-May-16	26	blue	k	0	0.5106	C	B	r	b	900	1	6	11	29-May-16	27	blue	l	1	0.58	D	B	b	r	900	1	6	11	29-May-16	28	blue	s	0	0.6515	D	C	r	b	900	1	6	11	29-May-16	29	blue	s	1	0.7634	B	D	b	r	900	1	6	11	29-May-16	30	blue	a	1	0.3386	A	D	b	r	900	1	6	11	29-May-16	31	blue	s	1	0.5295	C	B	r	b	900	1	6	11	29-May-16	32	blue	l	1	0.5763	D	C	b	r	900	1	6	11	29-May-16	1	Red	s	1	0.5439	B	C	r	b	900	1	6	11	29-May-16	2	Red	l	1	0.541	C	D	b	r	900	1	6	11	29-May-16	3	Red	a	1	0.532	C	A	b	r	900	1	6	11	29-May-16	4	Red	l	1	0.5626	D	A	r	b	900	1	6	11	29-May-16	5	Red	a	1	0.5155	A	B	r	b	900	1	6	11	29-May-16	6	Red	k	1	0.7287	C	B	r	b	900	1	6	11	29-May-16	7	Red	a	1	0.761	B	A	b	r	900	1	6	11	29-May-16	8	Red	k	1	0.6331	C	D	r	b	900	1	6	11	29-May-16	9	Red	a	1	0.4558	D	A	b	r	900	1	6	11	29-May-16	10	Red	l	1	0.6211	D	B	r	b	900	1	6	11	29-May-16	11	Red	s	1	0.6526	B	C	r	b	900	1	6	11	29-May-16	12	Red	a	1	0.4123	A	D	r	b	900	1	6	11	29-May-16	13	Red	l	1	0.5783	D	A	r	b	900	1	6	11	29-May-16	14	Red	k	1	0.4182	C	B	r	b	900	1	6	11	29-May-16	15	Red	s	1	0.5455	B	C	r	b	900	1	6	11	29-May-16	16	Red	a	1	0.5046	C	A	b	r	900	1	6	11	29-May-16	17	Red	a	1	0.4954	C	A	b	r	900	1	6	11	29-May-16	18	Red	k	0	0.4382	A	B	b	r	900	1	6	11	29-May-16	19	Red	k	1	0.7337	C	A	r	b	900	1	6	11	29-May-16	20	Red	k	1	0.588	A	C	b	r	900	1	6	11	29-May-16	21	Red	k	1	0.724	A	C	b	r	900	1	6	11	29-May-16	22	Red	s	1	0.5211	B	C	r	b	900	1	6	11	29-May-16	23	Red	l	1	0.7295	B	D	b	r	900	1	6	11	29-May-16	24	Red	l	1	0.5062	C	D	b	r	900	1	6	11	29-May-16	25	Red	k	1	0.6158	A	C	b	r	900	1	6	11	29-May-16	26	Red	k	0	0.423	C	B	b	r	900	1	6	11	29-May-16	27	Red	a	1	0.5743	A	C	r	b	900	1	6	11	29-May-16	28	Red	s	1	0.5979	D	B	b	r	900	1	6	11	29-May-16	29	Red	k	0	0.5162	C	D	b	r	900	1	6	11	29-May-16	30	Red	l	1	0.5154	D	A	r	b	900	1	6	11	29-May-16	31	Red	k	1	0.4318	D	C	b	r	900	1	6	11	29-May-16	32	Red	s	1	0.4802	B	A	r	b	900	1	6	11	29-May-16	1	blue	l	1	0.6132	D	A	b	r	900	1	6	11	29-May-16	2	blue	k	1	0.4425	B	C	r	b	900	1	6	11	29-May-16	3	blue	s	1	0.4911	A	B	r	b	900	1	6	11	29-May-16	4	blue	a	1	0.4898	B	A	r	b	900	1	6	11	29-May-16	5	blue	k	1	0.5686	C	A	b	r	900	1	6	11	29-May-16	6	blue	k	0	0.5913	B	D	b	r	900	1	6	11	29-May-16	7	blue	k	0	0.6061	C	B	r	b	900	1	6	11	29-May-16	8	blue	l	1	0.4939	B	D	r	b	900	1	6	11	29-May-16	9	blue	l	1	0.5966	B	D	r	b	900	1	6	11	29-May-16	10	blue	k	1	0.6769	C	A	b	r	900	1	6	11	29-May-16	11	blue	l	1	0.6435	D	C	b	r	900	1	6	11	29-May-16	12	blue	s	1	0.6596	B	C	b	r	900	1	6	11	29-May-16	13	blue	a	1	0.4247	A	C	b	r	900	1	6	11	29-May-16	14	blue	s	0	0.6571	D	A	r	b	900	1	6	11	29-May-16	15	blue	NaN	NaN	0	B	C	b	r	900	1	6	11	29-May-16	16	blue	a	1	0.4333	A	D	b	r	900	1	6	11	29-May-16	17	blue	k	1	0.6386	C	B	b	r	900	1	6	11	29-May-16	18	blue	s	1	0.5571	A	B	r	b	900	1	6	11	29-May-16	19	blue	a	1	0.3808	A	B	b	r	900	1	6	11	29-May-16	20	blue	a	1	0.6199	C	A	r	b	900	1	6	11	29-May-16	21	blue	l	1	0.6835	C	D	r	b	900	1	6	11	29-May-16	22	blue	k	1	0.5963	C	B	b	r	900	1	6	11	29-May-16	23	blue	k	1	0.5216	C	A	b	r	900	1	6	11	29-May-16	24	blue	s	1	0.5211	B	C	b	r	900	1	6	11	29-May-16	25	blue	k	1	0.6339	A	C	r	b	900	1	6	11	29-May-16	26	blue	l	1	0.6956	D	A	b	r	900	1	6	11	29-May-16	27	blue	a	1	0.4069	A	C	b	r	900	1	6	11	29-May-16	28	blue	l	1	0.5577	B	D	r	b	900	1	6	11	29-May-16	29	blue	a	1	0.4848	C	A	r	b	900	1	6	11	29-May-16	30	blue	l	1	0.6766	D	B	b	r	900	1	6	11	29-May-16	31	blue	k	1	0.5241	B	C	r	b	900	1	6	11	29-May-16	32	blue	s	1	0.6013	B	A	b	r	900	1	6	11	29-May-16	1	Red	l	1	0.5335	D	C	r	b	900	1	6	11	29-May-16	2	Red	l	1	0.3874	C	D	b	r	900	1	6	11	29-May-16	3	Red	l	1	0.4335	B	D	b	r	900	1	6	11	29-May-16	4	Red	s	1	0.6909	B	A	r	b	900	1	6	11	29-May-16	5	Red	k	1	0.5842	C	D	r	b	900	1	6	11	29-May-16	6	Red	a	1	0.6499	D	A	b	r	900	1	6	11	29-May-16	7	Red	s	1	0.5038	B	A	r	b	900	1	6	11	29-May-16	8	Red	s	1	0.5176	B	D	r	b	900	1	6	11	29-May-16	9	Red	l	1	0.6469	D	C	r	b	900	1	6	11	29-May-16	10	Red	a	1	0.5019	B	A	b	r	900	1	6	11	29-May-16	11	Red	a	1	0.4449	C	A	b	r	900	1	6	11	29-May-16	12	Red	a	1	0.5001	C	A	b	r	900	1	6	11	29-May-16	13	Red	s	1	0.4353	C	B	b	r	900	1	6	11	29-May-16	14	Red	l	0	0.6965	B	A	r	b	900	1	6	11	29-May-16	15	Red	k	1	0.8637	C	D	r	b	900	1	6	11	29-May-16	16	Red	a	1	0.5192	C	A	b	r	900	1	6	11	29-May-16	17	Red	k	1	0.6072	C	D	r	b	900	1	6	11	29-May-16	18	Red	k	1	0.5577	C	A	r	b	900	1	6	11	29-May-16	19	Red	a	1	0.5587	A	B	r	b	900	1	6	11	29-May-16	20	Red	a	0	0.7655	D	B	r	b	900	1	6	11	29-May-16	21	Red	l	1	0.5875	D	A	r	b	900	1	6	11	29-May-16	22	Red	k	1	0.5548	C	B	r	b	900	1	6	11	29-May-16	23	Red	a	1	0.6017	B	A	b	r	900	1	6	11	29-May-16	24	Red	s	1	0.5766	B	A	r	b	900	1	6	11	29-May-16	25	Red	k	1	0.5517	D	C	b	r	900	1	6	11	29-May-16	26	Red	l	1	0.6462	C	D	b	r	900	1	6	11	29-May-16	27	Red	a	1	0.5248	C	A	b	r	900	1	6	11	29-May-16	28	Red	s	1	0.4707	B	A	r	b	900	1	6	11	29-May-16	29	Red	k	1	0.5243	A	C	b	r	900	1	6	11	29-May-16	30	Red	k	1	0.5155	A	C	b	r	900	1	6	11	29-May-16	31	Red	a	0	0.5637	D	B	r	b	900	1	6	11	29-May-16	32	Red	k	0	0.5375	D	B	b	r	900	1	6	11	29-May-16	1	blue	s	1	0.8447	B	D	b	r	2000	1	6	11	29-May-16	2	blue	k	1	0.6764	D	C	r	b	2000	1	6	11	29-May-16	3	blue	l	1	0.5403	D	A	b	r	2000	1	6	11	29-May-16	4	blue	s	0	0.5177	A	C	r	b	2000	1	6	11	29-May-16	5	blue	a	1	0.4617	A	D	b	r	2000	1	6	11	29-May-16	6	blue	a	1	0.478	D	A	r	b	2000	1	6	11	29-May-16	7	blue	k	1	0.5743	C	A	b	r	2000	1	6	11	29-May-16	8	blue	a	1	0.4848	C	A	r	b	2000	1	6	11	29-May-16	9	blue	l	1	0.6061	D	C	b	r	2000	1	6	11	29-May-16	10	blue	a	1	0.469	A	B	b	r	2000	1	6	11	29-May-16	11	blue	l	1	0.4222	C	D	r	b	2000	1	6	11	29-May-16	12	blue	a	1	0.5748	B	A	r	b	2000	1	6	11	29-May-16	13	blue	l	1	0.6309	D	A	b	r	2000	1	6	11	29-May-16	14	blue	k	0	0.4868	B	C	b	r	2000	1	6	11	29-May-16	15	blue	s	1	0.326	B	C	b	r	2000	1	6	11	29-May-16	16	blue	k	1	0.6387	D	C	r	b	2000	1	6	11	29-May-16	17	blue	l	1	0.5594	D	A	b	r	2000	1	6	11	29-May-16	18	blue	k	0	0.8709	C	B	r	b	2000	1	6	11	29-May-16	19	blue	k	1	0.6394	C	A	b	r	2000	1	6	11	29-May-16	20	blue	l	1	0.4633	A	D	r	b	2000	1	6	11	29-May-16	21	blue	a	1	0.5355	A	B	b	r	2000	1	6	11	29-May-16	22	blue	s	1	0.3432	B	D	b	r	2000	1	6	11	29-May-16	23	blue	s	1	0.5358	B	A	b	r	2000	1	6	11	29-May-16	24	blue	l	1	0.5504	A	D	r	b	2000	1	6	11	29-May-16	25	blue	a	1	0.4563	A	C	b	r	2000	1	6	11	29-May-16	26	blue	s	1	0.5041	B	C	b	r	2000	1	6	11	29-May-16	27	blue	s	1	0.7126	A	B	r	b	2000	1	6	11	29-May-16	28	blue	k	1	0.5906	C	D	b	r	2000	1	6	11	29-May-16	29	blue	k	1	0.5435	C	B	b	r	2000	1	6	11	29-May-16	30	blue	k	1	0.407	C	D	b	r	2000	1	6	11	29-May-16	31	blue	l	1	0.6404	C	D	r	b	2000	1	6	11	29-May-16	32	blue	a	1	0.5443	D	A	r	b	2000	1	6	11	29-May-16	1	Red	l	1	0.6621	A	D	b	r	2000	1	6	11	29-May-16	2	Red	k	1	0.7156	A	C	b	r	2000	1	6	11	29-May-16	3	Red	a	1	0.5156	A	B	r	b	2000	1	6	11	29-May-16	4	Red	s	1	0.6687	B	D	r	b	2000	1	6	11	29-May-16	5	Red	k	1	0.5715	C	B	r	b	2000	1	6	11	29-May-16	6	Red	a	1	0.4775	C	A	b	r	2000	1	6	11	29-May-16	7	Red	k	1	0.6291	C	D	r	b	2000	1	6	11	29-May-16	8	Red	l	1	0.5339	D	B	r	b	2000	1	6	11	29-May-16	9	Red	a	1	0.452	A	C	r	b	2000	1	6	11	29-May-16	10	Red	k	1	0.7331	C	B	r	b	2000	1	6	11	29-May-16	11	Red	a	1	0.5647	B	A	b	r	2000	1	6	11	29-May-16	12	Red	s	1	0.6606	A	B	b	r	2000	1	6	11	29-May-16	13	Red	s	1	0.5164	A	B	b	r	2000	1	6	11	29-May-16	14	Red	a	0	0.7006	C	B	r	b	2000	1	6	11	29-May-16	15	Red	a	1	0.4365	C	A	b	r	2000	1	6	11	29-May-16	16	Red	l	1	0.4708	B	D	b	r	2000	1	6	11	29-May-16	17	Red	l	1	0.5569	D	B	r	b	2000	1	6	11	29-May-16	18	Red	a	0	0.5097	C	A	r	b	2000	1	6	11	29-May-16	19	Red	a	1	0.3896	B	A	b	r	2000	1	6	11	29-May-16	20	Red	a	1	0.3911	B	A	b	r	2000	1	6	11	29-May-16	21	Red	s	1	0.4936	D	B	b	r	2000	1	6	11	29-May-16	22	Red	s	1	0.382	A	B	b	r	2000	1	6	11	29-May-16	23	Red	l	1	0.6637	D	A	r	b	2000	1	6	11	29-May-16	24	Red	l	1	0.5026	C	D	b	r	2000	1	6	11	29-May-16	25	Red	k	1	0.5584	C	D	r	b	2000	1	6	11	29-May-16	26	Red	a	1	0.44	A	B	r	b	2000	1	6	11	29-May-16	27	Red	s	1	0.4225	B	C	r	b	2000	1	6	11	29-May-16	28	Red	l	1	0.5427	D	A	r	b	2000	1	6	11	29-May-16	29	Red	s	1	0.5278	B	D	r	b	2000	1	6	11	29-May-16	30	Red	k	1	0.5447	B	C	b	r	2000	1	6	11	29-May-16	31	Red	a	0	0.4	D	C	r	b	2000	1	6	11	29-May-16	32	Red	s	1	0.863	B	C	r	b	2000	1	6	11	29-May-16	1	blue	l	1	0.4826	C	D	r	b	2000	1	6	11	29-May-16	2	blue	l	1	0.3541	C	D	r	b	2000	1	6	11	29-May-16	3	blue	a	1	0.4669	A	C	b	r	2000	1	6	11	29-May-16	4	blue	a	0	0.2922	A	B	r	b	2000	1	6	11	29-May-16	5	blue	s	1	0.5306	B	A	b	r	2000	1	6	11	29-May-16	6	blue	k	1	0.5561	C	D	b	r	2000	1	6	11	29-May-16	7	blue	l	1	0.6427	D	A	b	r	2000	1	6	11	29-May-16	8	blue	k	0	0.5803	B	A	b	r	2000	1	6	11	29-May-16	9	blue	a	1	0.5232	B	A	r	b	2000	1	6	11	29-May-16	10	blue	l	1	0.5884	D	A	b	r	2000	1	6	11	29-May-16	11	blue	a	1	0.4917	A	D	b	r	2000	1	6	11	29-May-16	12	blue	s	0	0.5082	C	D	b	r	2000	1	6	11	29-May-16	13	blue	a	1	0.5411	B	A	r	b	2000	1	6	11	29-May-16	14	blue	s	1	0.484	C	B	r	b	2000	1	6	11	29-May-16	15	blue	a	0	0.3963	A	C	r	b	2000	1	6	11	29-May-16	16	blue	l	1	0.5483	C	D	r	b	2000	1	6	11	29-May-16	17	blue	s	1	0.6376	B	D	b	r	2000	1	6	11	29-May-16	18	blue	a	1	0.5004	B	A	r	b	2000	1	6	11	29-May-16	19	blue	l	1	0.5084	B	D	r	b	2000	1	6	11	29-May-16	20	blue	s	1	0.6541	A	B	r	b	2000	1	6	11	29-May-16	21	blue	a	0	0.4225	C	A	b	r	2000	1	6	11	29-May-16	22	blue	a	1	0.7006	C	A	r	b	2000	1	6	11	29-May-16	23	blue	k	1	0.4866	A	C	r	b	2000	1	6	11	29-May-16	24	blue	k	1	0.3816	C	B	b	r	2000	1	6	11	29-May-16	25	blue	l	1	0.3825	A	D	r	b	2000	1	6	11	29-May-16	26	blue	k	1	0.6137	D	C	r	b	2000	1	6	11	29-May-16	27	blue	a	1	0.4313	A	D	b	r	2000	1	6	11	29-May-16	28	blue	a	1	0.5029	D	A	r	b	2000	1	6	11	29-May-16	29	blue	k	1	0.5665	B	C	r	b	2000	1	6	11	29-May-16	30	blue	s	1	0.5817	D	B	r	b	2000	1	6	11	29-May-16	31	blue	l	1	0.5667	A	D	r	b	2000	1	6	11	29-May-16	32	blue	NaN	99	0	B	D	b	r	2000	1	6	11	29-May-16	1	Red	k	1	0.7628	B	C	b	r	2000	1	6	11	29-May-16	2	Red	k	1	0.5082	B	C	b	r	2000	1	6	11	29-May-16	3	Red	k	1	0.4284	A	C	b	r	2000	1	6	11	29-May-16	4	Red	s	1	0.5801	D	B	b	r	2000	1	6	11	29-May-16	5	Red	s	1	0.429	A	B	b	r	2000	1	6	11	29-May-16	6	Red	s	1	0.3502	C	B	b	r	2000	1	6	11	29-May-16	7	Red	a	0	0.8541	B	C	r	b	2000	1	6	11	29-May-16	8	Red	a	1	0.5495	D	A	b	r	2000	1	6	11	29-May-16	9	Red	l	1	0.557	D	A	r	b	2000	1	6	11	29-May-16	10	Red	a	1	0.5398	B	A	b	r	2000	1	6	11	29-May-16	11	Red	s	1	0.5318	D	B	b	r	2000	1	6	11	29-May-16	12	Red	l	1	0.5241	D	C	r	b	2000	1	6	11	29-May-16	13	Red	s	1	0.5091	D	B	b	r	2000	1	6	11	29-May-16	14	Red	a	1	0.4536	B	A	b	r	2000	1	6	11	29-May-16	15	Red	a	0	0.405	C	D	r	b	2000	1	6	11	29-May-16	16	Red	a	1	0.5014	B	A	b	r	2000	1	6	11	29-May-16	17	Red	k	1	0.4057	C	B	r	b	2000	1	6	11	29-May-16	18	Red	k	1	0.5425	D	C	b	r	2000	1	6	11	29-May-16	19	Red	s	1	0.6216	B	D	r	b	2000	1	6	11	29-May-16	20	Red	s	1	0.5578	A	B	b	r	2000	1	6	11	29-May-16	21	Red	a	1	0.4639	A	C	r	b	2000	1	6	11	29-May-16	22	Red	l	1	0.4704	B	D	b	r	2000	1	6	11	29-May-16	23	Red	a	1	0.4541	C	A	b	r	2000	1	6	11	29-May-16	24	Red	l	1	0.6381	D	C	r	b	2000	1	6	11	29-May-16	25	Red	l	1	0.3989	B	D	b	r	2000	1	6	11	29-May-16	26	Red	l	1	0.4068	A	D	b	r	2000	1	6	11	29-May-16	27	Red	l	1	0.3746	B	D	b	r	2000	1	6	11	29-May-16	28	Red	k	1	0.6397	B	C	b	r	2000	1	6	11	29-May-16	29	Red	a	1	0.4563	A	D	r	b	2000	1	6	11	29-May-16	30	Red	a	1	0.4407	A	B	r	b	2000	1	6	11	29-May-16	31	Red	k	1	0.7367	C	A	r	b	2000	1	6	11	29-May-16	32	Red	l	1	0.5918	D	A	r	b	2000	1	6	11	29-May-16	1	blue	k	0	0.7532	D	B	r	b	900	1	6	11	29-May-16	2	blue	a	0	0.4239	B	A	b	r	900	1	6	11	29-May-16	3	blue	l	1	0.7206	D	B	b	r	900	1	6	11	29-May-16	4	blue	l	1	0.591	B	D	r	b	900	1	6	11	29-May-16	5	blue	k	1	0.383	A	C	r	b	900	1	6	11	29-May-16	6	blue	a	1	0.4934	C	A	r	b	900	1	6	11	29-May-16	7	blue	l	1	0.4601	B	D	r	b	900	1	6	11	29-May-16	8	blue	k	0	0.8513	B	C	b	r	900	1	6	11	29-May-16	9	blue	a	1	0.5388	B	A	r	b	900	1	6	11	29-May-16	10	blue	l	1	0.5281	C	D	r	b	900	1	6	11	29-May-16	11	blue	k	1	0.6232	C	D	b	r	900	1	6	11	29-May-16	12	blue	s	1	0.4697	B	C	b	r	900	1	6	11	29-May-16	13	blue	s	1	0.6133	C	B	r	b	900	1	6	11	29-May-16	14	blue	s	1	0.5491	B	A	b	r	900	1	6	11	29-May-16	15	blue	l	1	0.4529	C	D	r	b	900	1	6	11	29-May-16	16	blue	a	1	0.5259	D	A	r	b	900	1	6	11	29-May-16	17	blue	k	1	0.4756	A	C	r	b	900	1	6	11	29-May-16	18	blue	k	1	0.4751	A	C	r	b	900	1	6	11	29-May-16	19	blue	s	1	0.5558	B	A	b	r	900	1	6	11	29-May-16	20	blue	l	1	0.585	C	D	r	b	900	1	6	11	29-May-16	21	blue	a	1	0.5273	A	B	b	r	900	1	6	11	29-May-16	22	blue	l	0	0.463	B	C	r	b	900	1	6	11	29-May-16	23	blue	k	1	0.5415	A	C	r	b	900	1	6	11	29-May-16	24	blue	a	1	0.461	B	A	r	b	900	1	6	11	29-May-16	25	blue	a	1	0.4596	C	A	r	b	900	1	6	11	29-May-16	26	blue	s	1	0.4345	A	B	r	b	900	1	6	11	29-May-16	27	blue	k	1	0.7067	A	C	r	b	900	1	6	11	29-May-16	28	blue	l	1	0.6487	A	D	r	b	900	1	6	11	29-May-16	29	blue	l	1	0.5599	D	A	b	r	900	1	6	11	29-May-16	30	blue	a	0	0.5462	C	B	b	r	900	1	6	11	29-May-16	31	blue	a	1	0.5361	A	B	b	r	900	1	6	11	29-May-16	32	blue	a	1	0.6888	A	D	b	r	900	1	6	11	29-May-16	1	Red	a	1	0.5995	D	A	b	r	900	1	6	11	29-May-16	2	Red	s	1	0.4527	B	A	r	b	900	1	6	11	29-May-16	3	Red	s	1	0.4353	B	C	r	b	900	1	6	11	29-May-16	4	Red	s	0	0.5319	B	A	b	r	900	1	6	11	29-May-16	5	Red	k	1	0.6187	A	C	b	r	900	1	6	11	29-May-16	6	Red	s	1	0.6491	A	B	b	r	900	1	6	11	29-May-16	7	Red	k	1	0.5849	C	B	r	b	900	1	6	11	29-May-16	8	Red	l	1	0.5511	D	B	r	b	900	1	6	11	29-May-16	9	Red	k	1	0.5512	C	B	r	b	900	1	6	11	29-May-16	10	Red	s	1	0.6857	A	B	b	r	900	1	6	11	29-May-16	11	Red	l	1	0.5348	B	D	b	r	900	1	6	11	29-May-16	12	Red	s	1	0.8602	A	B	b	r	900	1	6	11	29-May-16	13	Red	s	1	0.5652	B	A	r	b	900	1	6	11	29-May-16	14	Red	l	1	0.5951	C	D	b	r	900	1	6	11	29-May-16	15	Red	k	1	0.5472	D	C	b	r	900	1	6	11	29-May-16	16	Red	l	1	0.5769	A	D	b	r	900	1	6	11	29-May-16	17	Red	a	1	0.6566	A	D	r	b	900	1	6	11	29-May-16	18	Red	s	0	0.6144	C	A	r	b	900	1	6	11	29-May-16	19	Red	a	1	0.6951	B	A	b	r	900	1	6	11	29-May-16	20	Red	l	1	0.5743	D	B	r	b	900	1	6	11	29-May-16	21	Red	a	1	0.5008	B	A	b	r	900	1	6	11	29-May-16	22	Red	s	1	0.4986	C	B	b	r	900	1	6	11	29-May-16	23	Red	l	1	0.5629	B	D	b	r	900	1	6	11	29-May-16	24	Red	k	1	0.4013	D	C	b	r	900	1	6	11	29-May-16	25	Red	a	1	0.4665	D	A	b	r	900	1	6	11	29-May-16	26	Red	l	1	0.4963	B	D	b	r	900	1	6	11	29-May-16	27	Red	s	1	0.4883	B	A	r	b	900	1	6	11	29-May-16	28	Red	s	0	0.7042	C	B	r	b	900	1	6	11	29-May-16	29	Red	a	1	0.591	B	A	b	r	900	1	6	11	29-May-16	30	Red	a	1	0.5573	D	A	b	r	900	1	6	11	29-May-16	31	Red	k	1	0.5808	C	A	r	b	900	1	6	11	29-May-16	32	Red	l	1	0.4048	B	D	b	r	900	1	6	11	29-May-16	1	blue	a	1	0.5256	A	B	b	r	900	1	6	11	29-May-16	2	blue	l	1	0.4026	A	D	r	b	900	1	6	11	29-May-16	3	blue	k	1	0.5778	C	A	b	r	900	1	6	11	29-May-16	4	blue	k	1	0.651	A	C	r	b	900	1	6	11	29-May-16	5	blue	s	1	0.529	D	B	r	b	900	1	6	11	29-May-16	6	blue	l	1	0.4163	C	D	r	b	900	1	6	11	29-May-16	7	blue	k	0	0.4727	B	A	b	r	900	1	6	11	29-May-16	8	blue	s	1	0.5904	B	D	b	r	900	1	6	11	29-May-16	9	blue	k	1	0.5341	C	B	b	r	900	1	6	11	29-May-16	10	blue	k	1	0.5822	C	A	b	r	900	1	6	11	29-May-16	11	blue	l	1	0.5959	B	D	r	b	900	1	6	11	29-May-16	12	blue	k	0	0.5867	A	B	r	b	900	1	6	11	29-May-16	13	blue	k	1	0.5613	A	C	r	b	900	1	6	11	29-May-16	14	blue	l	1	0.5937	D	B	b	r	900	1	6	11	29-May-16	15	blue	k	1	0.536	B	C	r	b	900	1	6	11	29-May-16	16	blue	s	1	0.392	B	D	b	r	900	1	6	11	29-May-16	17	blue	l	1	0.5831	D	A	b	r	900	1	6	11	29-May-16	18	blue	a	1	0.5979	A	D	b	r	900	1	6	11	29-May-16	19	blue	a	1	0.5408	A	D	b	r	900	1	6	11	29-May-16	20	blue	k	0	0.6361	B	A	b	r	900	1	6	11	29-May-16	21	blue	a	1	0.6195	C	A	r	b	900	1	6	11	29-May-16	22	blue	a	1	0.5467	A	D	b	r	900	1	6	11	29-May-16	23	blue	k	1	0.5954	C	D	b	r	900	1	6	11	29-May-16	24	blue	a	1	0.7862	B	A	r	b	900	1	6	11	29-May-16	25	blue	l	1	0.5927	D	B	b	r	900	1	6	11	29-May-16	26	blue	s	1	0.7041	B	A	b	r	900	1	6	11	29-May-16	27	blue	s	1	0.5361	B	A	b	r	900	1	6	11	29-May-16	28	blue	k	1	0.6234	D	C	r	b	900	1	6	11	29-May-16	29	blue	a	0	0.7243	D	C	b	r	900	1	6	11	29-May-16	30	blue	a	1	0.55	A	D	b	r	900	1	6	11	29-May-16	31	blue	a	1	0.5392	A	D	b	r	900	1	6	11	29-May-16	32	blue	l	1	0.4421	A	D	r	b	900	1	6	11	29-May-16	1	Red	a	1	0.4362	D	A	b	r	900	1	6	11	29-May-16	2	Red	l	0	0.4345	A	C	b	r	900	1	6	11	29-May-16	3	Red	s	1	0.7062	B	C	r	b	900	1	6	11	29-May-16	4	Red	l	1	0.4903	C	D	b	r	900	1	6	11	29-May-16	5	Red	l	1	0.4398	C	D	b	r	900	1	6	11	29-May-16	6	Red	s	0	0.4234	C	B	r	b	900	1	6	11	29-May-16	7	Red	s	1	0.6301	B	A	r	b	900	1	6	11	29-May-16	8	Red	a	1	0.5981	A	B	r	b	900	1	6	11	29-May-16	9	Red	k	1	0.4301	C	D	r	b	900	1	6	11	29-May-16	10	Red	a	1	0.3639	A	C	r	b	900	1	6	11	29-May-16	11	Red	a	1	0.5723	B	A	b	r	900	1	6	11	29-May-16	12	Red	k	1	0.4976	C	A	r	b	900	1	6	11	29-May-16	13	Red	a	1	0.4919	B	A	b	r	900	1	6	11	29-May-16	14	Red	k	1	0.5698	C	A	r	b	900	1	6	11	29-May-16	15	Red	l	1	0.5201	D	C	r	b	900	1	6	11	29-May-16	16	Red	k	1	0.7351	D	C	b	r	900	1	6	11	29-May-16	17	Red	s	1	0.607	C	B	b	r	900	1	6	11	29-May-16	18	Red	l	1	0.781	D	C	r	b	900	1	6	11	29-May-16	19	Red	a	1	0.4607	B	A	b	r	900	1	6	11	29-May-16	20	Red	s	1	0.725	B	C	r	b	900	1	6	11	29-May-16	21	Red	a	1	0.5075	C	A	b	r	900	1	6	11	29-May-16	22	Red	l	1	0.5219	D	C	r	b	900	1	6	11	29-May-16	23	Red	a	1	0.3618	C	A	b	r	900	1	6	11	29-May-16	24	Red	l	1	0.5852	D	B	r	b	900	1	6	11	29-May-16	25	Red	k	1	0.5919	D	C	b	r	900	1	6	11	29-May-16	26	Red	s	0	0.5907	C	B	r	b	900	1	6	11	29-May-16	27	Red	s	1	0.4777	B	A	r	b	900	1	6	11	29-May-16	28	Red	s	1	0.5256	B	A	r	b	900	1	6	11	29-May-16	29	Red	s	1	0.8206	D	B	b	r	900	1	6	11	29-May-16	30	Red	k	0	0.7549	A	B	b	r	900	1	6	11	29-May-16	31	Red	l	1	0.8109	D	C	r	b	900	1	6	11	29-May-16	32	Red	l	1	0.553	D	B	r	b	900	1	6	11	29-May-16	1	blue	l	1	0.5537	D	B	b	r	2000	1	6	11	29-May-16	2	blue	k	1	0.472	D	C	r	b	2000	1	6	11	29-May-16	3	blue	s	1	0.529	B	C	b	r	2000	1	6	11	29-May-16	4	blue	l	1	0.6151	D	C	b	r	2000	1	6	11	29-May-16	5	blue	a	1	0.4572	B	A	r	b	2000	1	6	11	29-May-16	6	blue	s	1	0.544	A	B	r	b	2000	1	6	11	29-May-16	7	blue	a	1	0.5515	B	A	r	b	2000	1	6	11	29-May-16	8	blue	l	1	0.4555	A	D	r	b	2000	1	6	11	29-May-16	9	blue	a	0	0.52	C	A	b	r	2000	1	6	11	29-May-16	10	blue	a	1	0.4898	B	A	r	b	2000	1	6	11	29-May-16	11	blue	a	1	0.5047	D	A	r	b	2000	1	6	11	29-May-16	12	blue	k	1	0.6247	C	A	b	r	2000	1	6	11	29-May-16	13	blue	l	1	0.753	D	A	b	r	2000	1	6	11	29-May-16	14	blue	s	1	0.9149	B	D	b	r	2000	1	6	11	29-May-16	15	blue	k	1	0.5779	B	C	r	b	2000	1	6	11	29-May-16	16	blue	s	1	0.5625	B	A	b	r	2000	1	6	11	29-May-16	17	blue	a	1	0.4908	C	A	r	b	2000	1	6	11	29-May-16	18	blue	s	1	0.5855	C	B	r	b	2000	1	6	11	29-May-16	19	blue	s	1	0.4976	D	B	r	b	2000	1	6	11	29-May-16	20	blue	s	0	0.3391	D	C	r	b	2000	1	6	11	29-May-16	21	blue	l	1	0.5458	D	B	b	r	2000	1	6	11	29-May-16	22	blue	k	1	0.3695	D	C	r	b	2000	1	6	11	29-May-16	23	blue	a	1	0.4831	D	A	r	b	2000	1	6	11	29-May-16	24	blue	l	1	0.4194	A	D	r	b	2000	1	6	11	29-May-16	25	blue	k	1	0.5542	D	C	r	b	2000	1	6	11	29-May-16	26	blue	s	1	0.5556	D	B	r	b	2000	1	6	11	29-May-16	27	blue	a	1	0.7556	A	D	b	r	2000	1	6	11	29-May-16	28	blue	l	1	0.6516	B	D	r	b	2000	1	6	11	29-May-16	29	blue	k	1	0.7475	C	B	b	r	2000	1	6	11	29-May-16	30	blue	s	1	0.6341	D	B	r	b	2000	1	6	11	29-May-16	31	blue	l	1	0.6835	C	D	r	b	2000	1	6	11	29-May-16	32	blue	a	1	0.4839	A	C	b	r	2000	1	6	11	29-May-16	1	Red	s	1	0.7272	B	C	r	b	2000	1	6	11	29-May-16	2	Red	l	0	0.4608	A	C	b	r	2000	1	6	11	29-May-16	3	Red	k	1	0.4611	C	B	r	b	2000	1	6	11	29-May-16	4	Red	a	1	0.4787	D	A	b	r	2000	1	6	11	29-May-16	5	Red	s	1	0.574	B	C	r	b	2000	1	6	11	29-May-16	6	Red	s	1	0.5577	D	B	b	r	2000	1	6	11	29-May-16	7	Red	k	1	0.447	A	C	b	r	2000	1	6	11	29-May-16	8	Red	k	0	0.4858	C	B	b	r	2000	1	6	11	29-May-16	9	Red	s	1	0.5115	B	D	r	b	2000	1	6	11	29-May-16	10	Red	a	1	0.438	A	B	r	b	2000	1	6	11	29-May-16	11	Red	s	1	0.6391	B	C	r	b	2000	1	6	11	29-May-16	12	Red	l	1	0.607	C	D	b	r	2000	1	6	11	29-May-16	13	Red	l	1	0.4712	C	D	b	r	2000	1	6	11	29-May-16	14	Red	a	0	0.5762	C	A	r	b	2000	1	6	11	29-May-16	15	Red	l	1	0.6225	B	D	b	r	2000	1	6	11	29-May-16	16	Red	a	1	0.407	A	D	r	b	2000	1	6	11	29-May-16	17	Red	a	1	0.5032	A	D	r	b	2000	1	6	11	29-May-16	18	Red	s	0	0.6564	C	A	r	b	2000	1	6	11	29-May-16	19	Red	l	1	0.5833	C	D	b	r	2000	1	6	11	29-May-16	20	Red	s	1	0.4874	B	A	r	b	2000	1	6	11	29-May-16	21	Red	a	1	0.3451	A	B	r	b	2000	1	6	11	29-May-16	22	Red	l	1	0.5437	D	C	r	b	2000	1	6	11	29-May-16	23	Red	a	1	0.4015	A	C	r	b	2000	1	6	11	29-May-16	24	Red	a	1	0.5759	C	A	b	r	2000	1	6	11	29-May-16	25	Red	k	1	0.6655	C	A	r	b	2000	1	6	11	29-May-16	26	Red	s	1	0.5775	B	A	r	b	2000	1	6	11	29-May-16	27	Red	a	1	0.4895	A	C	r	b	2000	1	6	11	29-May-16	28	Red	l	1	0.4895	B	D	b	r	2000	1	6	11	29-May-16	29	Red	k	1	0.8649	C	D	r	b	2000	1	6	11	29-May-16	30	Red	l	1	0.6251	D	A	r	b	2000	1	6	11	29-May-16	31	Red	k	1	0.4906	B	C	b	r	2000	1	6	11	29-May-16	32	Red	l	1	0.499	A	D	b	r	2000	1	6	11	29-May-16	1	blue	k	0	0.6871	B	A	r	b	2000	1	6	11	29-May-16	2	blue	a	1	0.4381	A	C	b	r	2000	1	6	11	29-May-16	3	blue	a	1	0.6131	C	A	r	b	2000	1	6	11	29-May-16	4	blue	k	1	0.5498	B	C	r	b	2000	1	6	11	29-May-16	5	blue	s	1	0.4447	D	B	r	b	2000	1	6	11	29-May-16	6	blue	l	1	0.5103	D	B	b	r	2000	1	6	11	29-May-16	7	blue	k	0	0.4213	D	C	b	r	2000	1	6	11	29-May-16	8	blue	s	1	0.7172	C	B	r	b	2000	1	6	11	29-May-16	9	blue	k	1	0.5181	C	A	b	r	2000	1	6	11	29-May-16	10	blue	k	1	0.5021	C	D	b	r	2000	1	6	11	29-May-16	11	blue	s	1	0.6469	A	B	r	b	2000	1	6	11	29-May-16	12	blue	s	1	0.6795	B	D	b	r	2000	1	6	11	29-May-16	13	blue	k	1	0.8395	C	B	b	r	2000	1	6	11	29-May-16	14	blue	k	1	0.5107	C	D	b	r	2000	1	6	11	29-May-16	15	blue	k	1	0.465	C	B	b	r	2000	1	6	11	29-May-16	16	blue	s	1	0.6248	C	B	r	b	2000	1	6	11	29-May-16	17	blue	a	1	0.4798	B	A	r	b	2000	1	6	11	29-May-16	18	blue	s	1	0.5292	B	D	b	r	2000	1	6	11	29-May-16	19	blue	a	1	0.6008	C	A	r	b	2000	1	6	11	29-May-16	20	blue	a	1	0.4332	B	A	r	b	2000	1	6	11	29-May-16	21	blue	a	1	0.4094	C	A	r	b	2000	1	6	11	29-May-16	22	blue	k	0	0.6013	D	C	b	r	2000	1	6	11	29-May-16	23	blue	a	1	0.5456	A	C	b	r	2000	1	6	11	29-May-16	24	blue	k	1	0.5458	A	C	r	b	2000	1	6	11	29-May-16	25	blue	k	1	0.5931	C	D	b	r	2000	1	6	11	29-May-16	26	blue	l	1	0.4659	A	D	r	b	2000	1	6	11	29-May-16	27	blue	l	1	0.4427	D	A	b	r	2000	1	6	11	29-May-16	28	blue	a	0	0.6408	B	A	b	r	2000	1	6	11	29-May-16	29	blue	l	1	0.8333	A	D	r	b	2000	1	6	11	29-May-16	30	blue	l	1	0.4579	C	D	r	b	2000	1	6	11	29-May-16	31	blue	s	1	0.6825	B	A	b	r	2000	1	6	11	29-May-16	32	blue	l	1	0.5772	D	C	b	r	2000	1	6	11	29-May-16	1	Red	a	0	0.9806	D	C	r	b	2000	1	6	11	29-May-16	2	Red	s	1	0.5493	D	B	b	r	2000	1	6	11	29-May-16	3	Red	l	1	0.4773	C	D	b	r	2000	1	6	11	29-May-16	4	Red	a	1	0.5906	B	A	b	r	2000	1	6	11	29-May-16	5	Red	s	0	0.5031	B	C	b	r	2000	1	6	11	29-May-16	6	Red	s	1	0.6775	D	B	b	r	2000	1	6	11	29-May-16	7	Red	k	1	0.4475	C	A	r	b	2000	1	6	11	29-May-16	8	Red	a	1	0.4549	D	A	b	r	2000	1	6	11	29-May-16	9	Red	s	1	0.8139	B	C	r	b	2000	1	6	11	29-May-16	10	Red	a	1	0.5917	B	A	b	r	2000	1	6	11	29-May-16	11	Red	a	1	0.3905	A	D	r	b	2000	1	6	11	29-May-16	12	Red	l	1	0.4395	A	D	b	r	2000	1	6	11	29-May-16	13	Red	s	1	0.5997	B	D	r	b	2000	1	6	11	29-May-16	14	Red	k	0	0.5107	D	C	r	b	2000	1	6	11	29-May-16	15	Red	k	1	0.5355	D	C	b	r	2000	1	6	11	29-May-16	16	Red	a	1	0.4555	A	C	r	b	2000	1	6	11	29-May-16	17	Red	l	1	0.5518	C	D	b	r	2000	1	6	11	29-May-16	18	Red	s	1	0.6228	C	B	b	r	2000	1	6	11	29-May-16	19	Red	l	1	0.4469	C	D	b	r	2000	1	6	11	29-May-16	20	Red	a	0	0.6233	B	A	r	b	2000	1	6	11	29-May-16	21	Red	s	1	0.3769	C	B	b	r	2000	1	6	11	29-May-16	22	Red	a	1	0.4563	A	D	r	b	2000	1	6	11	29-May-16	23	Red	l	1	0.4413	C	D	b	r	2000	1	6	11	29-May-16	24	Red	k	1	0.8328	C	A	r	b	2000	1	6	11	29-May-16	25	Red	s	1	0.5992	D	B	b	r	2000	1	6	11	29-May-16	26	Red	a	1	0.376	C	A	b	r	2000	1	6	11	29-May-16	27	Red	k	1	0.5116	C	A	r	b	2000	1	6	11	29-May-16	28	Red	a	1	0.4558	D	A	b	r	2000	1	6	11	29-May-16	29	Red	s	0	0.5119	A	C	b	r	2000	1	6	11	29-May-16	30	Red	a	0	0.4412	D	A	r	b	2000	1	6	11	29-May-16	31	Red	k	1	0.5604	A	C	b	r	2000	1	6	11	29-May-16	32	Red	k	1	0.625	B	C	b	r	2000	1	6	11	29-May-16	1	blue	a	1	0.4561	A	C	b	r	900	1	6	11	29-May-16	2	blue	s	1	0.4857	B	D	b	r	900	1	6	11	29-May-16	3	blue	k	1	0.4606	D	C	r	b	900	1	6	11	29-May-16	4	blue	a	1	0.4058	A	D	b	r	900	1	6	11	29-May-16	5	blue	s	1	0.4922	D	B	r	b	900	1	6	11	29-May-16	6	blue	a	1	0.428	A	C	b	r	900	1	6	11	29-May-16	7	blue	l	1	0.4972	B	D	r	b	900	1	6	11	29-May-16	8	blue	k	0	0.4812	D	B	r	b	900	1	6	11	29-May-16	9	blue	s	1	0.4477	B	A	b	r	900	1	6	11	29-May-16	10	blue	s	1	0.4385	D	B	r	b	900	1	6	11	29-May-16	11	blue	l	1	0.5896	A	D	r	b	900	1	6	11	29-May-16	12	blue	a	1	0.5965	A	B	b	r	900	1	6	11	29-May-16	13	blue	l	1	0.4453	A	D	r	b	900	1	6	11	29-May-16	14	blue	a	1	0.4829	D	A	r	b	900	1	6	11	29-May-16	15	blue	k	0	0.4338	A	B	r	b	900	1	6	11	29-May-16	16	blue	l	1	0.6892	A	D	r	b	900	1	6	11	29-May-16	17	blue	l	1	0.5524	C	D	r	b	900	1	6	11	29-May-16	18	blue	a	1	0.6251	A	C	b	r	900	1	6	11	29-May-16	19	blue	k	1	0.6561	A	C	r	b	900	1	6	11	29-May-16	20	blue	k	1	0.5588	C	B	b	r	900	1	6	11	29-May-16	21	blue	k	1	0.5096	C	A	b	r	900	1	6	11	29-May-16	22	blue	s	1	0.5333	B	C	b	r	900	1	6	11	29-May-16	23	blue	s	0	0.4998	C	A	b	r	900	1	6	11	29-May-16	24	blue	a	1	0.6603	A	D	b	r	900	1	6	11	29-May-16	25	blue	l	1	0.706	C	D	r	b	900	1	6	11	29-May-16	26	blue	l	1	0.5452	A	D	r	b	900	1	6	11	29-May-16	27	blue	a	1	0.4972	C	A	r	b	900	1	6	11	29-May-16	28	blue	k	1	0.6879	C	D	b	r	900	1	6	11	29-May-16	29	blue	k	1	0.4954	B	C	r	b	900	1	6	11	29-May-16	30	blue	l	1	0.6779	D	B	b	r	900	1	6	11	29-May-16	31	blue	a	0	0.7889	B	A	b	r	900	1	6	11	29-May-16	32	blue	k	1	0.6855	C	B	b	r	900	1	6	11	29-May-16	1	Red	a	1	0.4122	A	D	r	b	900	1	6	11	29-May-16	2	Red	l	1	0.5297	D	C	r	b	900	1	6	11	29-May-16	3	Red	s	1	0.6156	C	B	b	r	900	1	6	11	29-May-16	4	Red	l	1	0.5595	A	D	b	r	900	1	6	11	29-May-16	5	Red	k	1	0.5094	C	D	r	b	900	1	6	11	29-May-16	6	Red	s	1	0.6299	D	B	b	r	900	1	6	11	29-May-16	7	Red	l	1	0.5088	C	D	b	r	900	1	6	11	29-May-16	8	Red	a	1	0.483	A	C	r	b	900	1	6	11	29-May-16	9	Red	k	1	0.6589	B	C	b	r	900	1	6	11	29-May-16	10	Red	k	1	0.4737	D	C	b	r	900	1	6	11	29-May-16	11	Red	l	1	0.5933	D	B	r	b	900	1	6	11	29-May-16	12	Red	l	1	0.497	B	D	b	r	900	1	6	11	29-May-16	13	Red	l	1	0.4786	A	D	b	r	900	1	6	11	29-May-16	14	Red	k	0	0.5749	B	D	r	b	900	1	6	11	29-May-16	15	Red	s	1	0.6295	C	B	b	r	900	1	6	11	29-May-16	16	Red	s	1	0.4772	B	A	r	b	900	1	6	11	29-May-16	17	Red	l	1	0.5704	B	D	b	r	900	1	6	11	29-May-16	18	Red	s	0	0.5397	C	B	r	b	900	1	6	11	29-May-16	19	Red	k	0	0.7051	B	C	r	b	900	1	6	11	29-May-16	20	Red	l	0	0.8722	B	C	b	r	900	1	6	11	29-May-16	21	Red	s	1	0.7139	B	A	r	b	900	1	6	11	29-May-16	22	Red	a	1	0.4651	A	C	r	b	900	1	6	11	29-May-16	23	Red	a	1	0.4311	A	D	r	b	900	1	6	11	29-May-16	24	Red	a	1	0.4866	D	A	b	r	900	1	6	11	29-May-16	25	Red	k	1	0.574	C	D	r	b	900	1	6	11	29-May-16	26	Red	a	1	0.4217	A	C	r	b	900	1	6	11	29-May-16	27	Red	s	1	0.4349	B	D	r	b	900	1	6	11	29-May-16	28	Red	a	1	0.396	A	D	r	b	900	1	6	11	29-May-16	29	Red	k	1	0.675	C	D	r	b	900	1	6	11	29-May-16	30	Red	a	1	0.7362	D	A	b	r	900	1	6	11	29-May-16	31	Red	k	1	0.6088	A	C	b	r	900	1	6	11	29-May-16	32	Red	a	0	0.7263	C	D	b	r	900	1	6	11	29-May-16	1	blue	a	1	0.4048	A	D	b	r	900	1	6	11	29-May-16	2	blue	l	1	0.4098	A	D	r	b	900	1	6	11	29-May-16	3	blue	l	1	0.4979	B	D	r	b	900	1	6	11	29-May-16	4	blue	k	0	0.4656	C	B	r	b	900	1	6	11	29-May-16	5	blue	a	0	0.6803	D	C	b	r	900	1	6	11	29-May-16	6	blue	s	0	0.5611	C	A	b	r	900	1	6	11	29-May-16	7	blue	s	1	0.5185	B	D	b	r	900	1	6	11	29-May-16	8	blue	a	1	0.566	D	A	r	b	900	1	6	11	29-May-16	9	blue	s	1	0.6764	C	B	r	b	900	1	6	11	29-May-16	10	blue	a	1	0.4114	B	A	r	b	900	1	6	11	29-May-16	11	blue	s	1	0.4923	C	B	r	b	900	1	6	11	29-May-16	12	blue	k	1	0.4831	B	C	r	b	900	1	6	11	29-May-16	13	blue	l	1	0.5205	D	C	b	r	900	1	6	11	29-May-16	14	blue	l	1	0.5357	A	D	r	b	900	1	6	11	29-May-16	15	blue	a	1	0.5124	C	A	r	b	900	1	6	11	29-May-16	16	blue	a	1	0.4392	A	C	b	r	900	1	6	11	29-May-16	17	blue	s	1	0.5983	B	C	b	r	900	1	6	11	29-May-16	18	blue	s	1	0.5978	C	B	r	b	900	1	6	11	29-May-16	19	blue	a	1	0.4207	A	C	b	r	900	1	6	11	29-May-16	20	blue	l	1	0.5557	D	B	b	r	900	1	6	11	29-May-16	21	blue	k	1	0.4914	C	A	b	r	900	1	6	11	29-May-16	22	blue	l	0	0.4983	D	C	r	b	900	1	6	11	29-May-16	23	blue	s	0	0.4501	C	D	b	r	900	1	6	11	29-May-16	24	blue	k	1	0.4581	A	C	r	b	900	1	6	11	29-May-16	25	blue	k	1	0.4966	C	A	b	r	900	1	6	11	29-May-16	26	blue	k	0	0.5677	B	A	b	r	900	1	6	11	29-May-16	27	blue	k	0	0.6532	C	B	r	b	900	1	6	11	29-May-16	28	blue	k	1	0.5103	D	C	r	b	900	1	6	11	29-May-16	29	blue	a	1	0.4929	A	C	b	r	900	1	6	11	29-May-16	30	blue	a	1	0.6762	A	C	b	r	900	1	6	11	29-May-16	31	blue	l	1	0.4432	C	D	r	b	900	1	6	11	29-May-16	32	blue	l	1	0.7296	D	B	b	r	900	1	6	11	29-May-16	1	Red	s	1	0.5968	B	A	r	b	900	1	6	11	29-May-16	2	Red	s	1	0.4424	B	D	r	b	900	1	6	11	29-May-16	3	Red	k	1	0.6184	C	A	r	b	900	1	6	11	29-May-16	4	Red	k	0	0.4661	C	B	b	r	900	1	6	11	29-May-16	5	Red	k	1	0.7195	A	C	b	r	900	1	6	11	29-May-16	6	Red	s	1	0.4627	B	C	r	b	900	1	6	11	29-May-16	7	Red	k	1	0.5426	C	B	r	b	900	1	6	11	29-May-16	8	Red	k	1	0.6131	A	C	b	r	900	1	6	11	29-May-16	9	Red	a	1	0.5021	D	A	b	r	900	1	6	11	29-May-16	10	Red	k	1	0.5801	C	D	r	b	900	1	6	11	29-May-16	11	Red	s	1	0.4991	B	D	r	b	900	1	6	11	29-May-16	12	Red	s	0	0.515	D	B	r	b	900	1	6	11	29-May-16	13	Red	a	1	0.7603	D	A	b	r	900	1	6	11	29-May-16	14	Red	l	1	0.6568	D	C	r	b	900	1	6	11	29-May-16	15	Red	NaN	NaN	0	C	D	r	b	900	1	6	11	29-May-16	16	Red	s	1	0.6074	B	D	r	b	900	1	6	11	29-May-16	17	Red	k	1	0.5672	D	C	b	r	900	1	6	11	29-May-16	18	Red	k	0	0.4849	B	C	r	b	900	1	6	11	29-May-16	19	Red	a	1	0.5179	C	A	b	r	900	1	6	11	29-May-16	20	Red	l	1	0.5406	C	D	b	r	900	1	6	11	29-May-16	21	Red	a	1	0.6766	D	A	b	r	900	1	6	11	29-May-16	22	Red	l	1	0.5545	B	D	b	r	900	1	6	11	29-May-16	23	Red	l	1	0.57	D	C	r	b	900	1	6	11	29-May-16	24	Red	a	1	0.4813	A	B	r	b	900	1	6	11	29-May-16	25	Red	s	1	0.57	B	C	r	b	900	1	6	11	29-May-16	26	Red	k	1	0.8316	A	C	b	r	900	1	6	11	29-May-16	27	Red	l	1	0.5831	D	A	r	b	900	1	6	11	29-May-16	28	Red	a	1	0.4772	A	D	r	b	900	1	6	11	29-May-16	29	Red	l	1	0.4771	B	D	b	r	900	1	6	11	29-May-16	30	Red	l	1	0.6117	C	D	b	r	900	1	6	11	29-May-16	31	Red	a	1	0.4582	D	A	b	r	900	1	6	11	29-May-16	32	Red	a	1	0.4653	D	A	b	r	900	1	6	11	29-May-16	1	blue	k	1	0.5983	C	B	b	r	2000	1	6	11	29-May-16	2	blue	a	1	0.4373	A	B	b	r	2000	1	6	11	29-May-16	3	blue	k	1	0.502	C	D	b	r	2000	1	6	11	29-May-16	4	blue	k	0	0.5735	C	B	r	b	2000	1	6	11	29-May-16	5	blue	a	1	0.3496	A	C	b	r	2000	1	6	11	29-May-16	6	blue	l	1	0.6793	D	B	b	r	2000	1	6	11	29-May-16	7	blue	k	1	0.5176	C	A	b	r	2000	1	6	11	29-May-16	8	blue	s	1	0.4868	A	B	r	b	2000	1	6	11	29-May-16	9	blue	l	1	0.5342	C	D	r	b	2000	1	6	11	29-May-16	10	blue	k	1	0.5746	B	C	r	b	2000	1	6	11	29-May-16	11	blue	l	1	0.6311	D	B	b	r	2000	1	6	11	29-May-16	12	blue	l	1	0.5022	A	D	r	b	2000	1	6	11	29-May-16	13	blue	l	1	0.7582	D	C	b	r	2000	1	6	11	29-May-16	14	blue	k	1	0.5927	A	C	r	b	2000	1	6	11	29-May-16	15	blue	a	1	0.4405	A	D	b	r	2000	1	6	11	29-May-16	16	blue	s	1	0.7515	B	C	b	r	2000	1	6	11	29-May-16	17	blue	a	1	0.4949	C	A	r	b	2000	1	6	11	29-May-16	18	blue	l	1	0.4811	D	C	b	r	2000	1	6	11	29-May-16	19	blue	a	1	0.4732	C	A	r	b	2000	1	6	11	29-May-16	20	blue	a	1	0.4569	A	B	b	r	2000	1	6	11	29-May-16	21	blue	a	0	0.4559	C	A	b	r	2000	1	6	11	29-May-16	22	blue	a	1	0.5377	B	A	r	b	2000	1	6	11	29-May-16	23	blue	k	0	0.4805	D	B	r	b	2000	1	6	11	29-May-16	24	blue	k	0	0.5361	B	C	b	r	2000	1	6	11	29-May-16	25	blue	l	1	0.706	B	D	r	b	2000	1	6	11	29-May-16	26	blue	k	1	0.65	B	C	r	b	2000	1	6	11	29-May-16	27	blue	k	1	0.5922	B	C	r	b	2000	1	6	11	29-May-16	28	blue	s	1	0.4259	B	C	b	r	2000	1	6	11	29-May-16	29	blue	s	1	0.4649	D	B	r	b	2000	1	6	11	29-May-16	30	blue	l	1	0.5702	D	B	b	r	2000	1	6	11	29-May-16	31	blue	k	0	0.6184	B	A	b	r	2000	1	6	11	29-May-16	32	blue	a	1	0.4489	A	B	b	r	2000	1	6	11	29-May-16	1	Red	s	1	0.4918	B	A	r	b	2000	1	6	11	29-May-16	2	Red	s	1	0.5472	D	B	b	r	2000	1	6	11	29-May-16	3	Red	l	1	0.5402	D	B	r	b	2000	1	6	11	29-May-16	4	Red	a	1	0.4984	A	B	r	b	2000	1	6	11	29-May-16	5	Red	l	1	0.5558	B	D	b	r	2000	1	6	11	29-May-16	6	Red	k	1	0.6281	C	B	r	b	2000	1	6	11	29-May-16	7	Red	l	1	0.6032	D	C	r	b	2000	1	6	11	29-May-16	8	Red	a	1	0.4447	A	B	r	b	2000	1	6	11	29-May-16	9	Red	k	1	0.7153	C	A	r	b	2000	1	6	11	29-May-16	10	Red	l	1	0.5645	D	A	r	b	2000	1	6	11	29-May-16	11	Red	k	1	0.6442	D	C	b	r	2000	1	6	11	29-May-16	12	Red	k	1	0.5008	B	C	b	r	2000	1	6	11	29-May-16	13	Red	a	1	0.6355	D	A	b	r	2000	1	6	11	29-May-16	14	Red	s	1	0.7721	B	D	r	b	2000	1	6	11	29-May-16	15	Red	l	1	0.4694	D	B	r	b	2000	1	6	11	29-May-16	16	Red	k	0	0.5344	B	C	r	b	2000	1	6	11	29-May-16	17	Red	l	1	0.4937	D	B	r	b	2000	1	6	11	29-May-16	18	Red	k	1	0.6456	D	C	b	r	2000	1	6	11	29-May-16	19	Red	k	0	0.4937	A	C	r	b	2000	1	6	11	29-May-16	20	Red	k	1	0.5671	B	C	b	r	2000	1	6	11	29-May-16	21	Red	a	0	0.6372	B	C	r	b	2000	1	6	11	29-May-16	22	Red	s	1	0.8214	B	C	r	b	2000	1	6	11	29-May-16	23	Red	l	1	0.6545	D	B	r	b	2000	1	6	11	29-May-16	24	Red	a	1	0.838	A	C	r	b	2000	1	6	11	29-May-16	25	Red	l	1	0.5969	B	D	b	r	2000	1	6	11	29-May-16	26	Red	NaN	99	0	C	A	b	r	2000	1	6	11	29-May-16	27	Red	NaN	NaN	0	B	C	r	b	2000	1	6	11	29-May-16	28	Red	k	1	0.6792	C	A	r	b	2000	1	6	11	29-May-16	29	Red	k	0	0.513	A	B	b	r	2000	1	6	11	29-May-16	30	Red	a	1	0.4883	B	A	b	r	2000	1	6	11	29-May-16	31	Red	a	1	0.456	A	D	r	b	2000	1	6	11	29-May-16	32	Red	k	1	0.6155	A	C	b	r	2000	1	6	11	29-May-16	1	blue	k	1	0.809	C	A	b	r	2000	1	6	11	29-May-16	2	blue	s	1	0.6162	B	A	b	r	2000	1	6	11	29-May-16	3	blue	k	0	0.5354	C	D	r	b	2000	1	6	11	29-May-16	4	blue	k	1	0.4789	B	C	r	b	2000	1	6	11	29-May-16	5	blue	s	1	0.6152	B	D	b	r	2000	1	6	11	29-May-16	6	blue	l	1	0.4252	A	D	r	b	2000	1	6	11	29-May-16	7	blue	k	0	0.4478	A	B	r	b	2000	1	6	11	29-May-16	8	blue	s	1	0.3535	B	C	b	r	2000	1	6	11	29-May-16	9	blue	k	1	0.6007	A	C	r	b	2000	1	6	11	29-May-16	10	blue	a	1	0.4655	D	A	r	b	2000	1	6	11	29-May-16	11	blue	l	1	0.5126	B	D	r	b	2000	1	6	11	29-May-16	12	blue	a	1	0.4654	C	A	r	b	2000	1	6	11	29-May-16	13	blue	s	1	0.4255	A	B	r	b	2000	1	6	11	29-May-16	14	blue	s	1	0.4577	C	B	r	b	2000	1	6	11	29-May-16	15	blue	k	1	0.6742	B	C	r	b	2000	1	6	11	29-May-16	16	blue	a	0	0.5456	D	A	b	r	2000	1	6	11	29-May-16	17	blue	l	1	0.481	D	C	b	r	2000	1	6	11	29-May-16	18	blue	k	0	0.6812	A	B	r	b	2000	1	6	11	29-May-16	19	blue	a	1	0.4746	B	A	r	b	2000	1	6	11	29-May-16	20	blue	k	1	0.5777	B	C	r	b	2000	1	6	11	29-May-16	21	blue	a	1	0.586	A	C	b	r	2000	1	6	11	29-May-16	22	blue	a	1	0.555	D	A	r	b	2000	1	6	11	29-May-16	23	blue	k	1	0.4994	D	C	r	b	2000	1	6	11	29-May-16	24	blue	k	1	0.5463	D	C	r	b	2000	1	6	11	29-May-16	25	blue	k	1	0.5217	A	C	r	b	2000	1	6	11	29-May-16	26	blue	a	0	0.5236	D	A	b	r	2000	1	6	11	29-May-16	27	blue	s	1	0.6028	C	B	r	b	2000	1	6	11	29-May-16	28	blue	l	1	0.675	D	A	b	r	2000	1	6	11	29-May-16	29	blue	a	1	0.4425	C	A	r	b	2000	1	6	11	29-May-16	30	blue	l	1	0.7957	D	B	b	r	2000	1	6	11	29-May-16	31	blue	a	1	0.555	C	A	r	b	2000	1	6	11	29-May-16	32	blue	a	1	0.4183	A	B	b	r	2000	1	6	11	29-May-16	1	Red	l	1	0.5121	C	D	b	r	2000	1	6	11	29-May-16	2	Red	k	1	0.537	D	C	b	r	2000	1	6	11	29-May-16	3	Red	l	1	0.5448	D	B	r	b	2000	1	6	11	29-May-16	4	Red	a	1	0.5274	C	A	b	r	2000	1	6	11	29-May-16	5	Red	l	1	0.4633	C	D	b	r	2000	1	6	11	29-May-16	6	Red	k	1	0.6404	C	D	r	b	2000	1	6	11	29-May-16	7	Red	a	1	0.4879	B	A	b	r	2000	1	6	11	29-May-16	8	Red	l	1	0.5537	D	B	r	b	2000	1	6	11	29-May-16	9	Red	s	1	0.5694	B	D	r	b	2000	1	6	11	29-May-16	10	Red	l	1	0.5779	D	A	r	b	2000	1	6	11	29-May-16	11	Red	k	1	0.5696	C	A	r	b	2000	1	6	11	29-May-16	12	Red	s	1	0.8169	B	D	r	b	2000	1	6	11	29-May-16	13	Red	a	1	0.4809	A	C	r	b	2000	1	6	11	29-May-16	14	Red	a	1	0.5065	D	A	b	r	2000	1	6	11	29-May-16	15	Red	l	0	0.7306	C	A	r	b	2000	1	6	11	29-May-16	16	Red	a	1	0.4814	A	C	r	b	2000	1	6	11	29-May-16	17	Red	k	1	0.5702	C	B	r	b	2000	1	6	11	29-May-16	18	Red	a	1	0.4018	D	A	b	r	2000	1	6	11	29-May-16	19	Red	k	1	0.6749	D	C	b	r	2000	1	6	11	29-May-16	20	Red	a	0	0.5548	C	B	b	r	2000	1	6	11	29-May-16	21	Red	a	0	0.3785	B	C	r	b	2000	1	6	11	29-May-16	22	Red	k	1	0.6584	C	B	r	b	2000	1	6	11	29-May-16	23	Red	s	1	0.5073	A	B	b	r	2000	1	6	11	29-May-16	24	Red	l	1	0.5955	D	C	r	b	2000	1	6	11	29-May-16	25	Red	s	1	0.5067	B	A	r	b	2000	1	6	11	29-May-16	26	Red	k	1	0.5797	B	C	b	r	2000	1	6	11	29-May-16	27	Red	s	1	0.5554	B	C	r	b	2000	1	6	11	29-May-16	28	Red	s	1	0.3963	B	D	r	b	2000	1	6	11	29-May-16	29	Red	l	1	0.4767	C	D	b	r	2000	1	6	11	29-May-16	30	Red	l	1	0.4674	A	D	b	r	2000	1	6	11	29-May-16	31	Red	a	1	0.4926	D	A	b	r	2000	1	6	11	29-May-16	32	Red	a	1	0.3959	C	A	b	r	2000	1	6	11	29-May-16	1	blue	a	1	0.3823	A	D	b	r	900	1	6	11	29-May-16	2	blue	l	1	0.4047	C	D	r	b	900	1	6	11	29-May-16	3	blue	l	1	0.4117	C	D	r	b	900	1	6	11	29-May-16	4	blue	s	1	0.5622	A	B	r	b	900	1	6	11	29-May-16	5	blue	s	1	0.4812	C	B	r	b	900	1	6	11	29-May-16	6	blue	s	1	0.4178	A	B	r	b	900	1	6	11	29-May-16	7	blue	a	0	0.4167	C	D	b	r	900	1	6	11	29-May-16	8	blue	l	1	0.6141	B	D	r	b	900	1	6	11	29-May-16	9	blue	k	1	0.4535	D	C	r	b	900	1	6	11	29-May-16	10	blue	a	1	0.3568	A	B	b	r	900	1	6	11	29-May-16	11	blue	s	1	0.6212	C	B	r	b	900	1	6	11	29-May-16	12	blue	a	1	0.4984	A	D	b	r	900	1	6	11	29-May-16	13	blue	a	0	0.6105	D	C	b	r	900	1	6	11	29-May-16	14	blue	k	0	0.4581	A	B	r	b	900	1	6	11	29-May-16	15	blue	a	1	0.5206	A	B	b	r	900	1	6	11	29-May-16	16	blue	k	1	0.7031	C	A	b	r	900	1	6	11	29-May-16	17	blue	l	1	0.5267	D	C	b	r	900	1	6	11	29-May-16	18	blue	a	1	0.6784	D	A	r	b	900	1	6	11	29-May-16	19	blue	s	1	0.4687	A	B	r	b	900	1	6	11	29-May-16	20	blue	l	1	0.6184	C	D	r	b	900	1	6	11	29-May-16	21	blue	a	1	0.4738	D	A	r	b	900	1	6	11	29-May-16	22	blue	s	1	0.6502	B	A	b	r	900	1	6	11	29-May-16	23	blue	s	0	0.5199	C	D	b	r	900	1	6	11	29-May-16	24	blue	l	0	0.5681	C	A	b	r	900	1	6	11	29-May-16	25	blue	k	1	0.6548	D	C	r	b	900	1	6	11	29-May-16	26	blue	s	1	0.4297	B	D	b	r	900	1	6	11	29-May-16	27	blue	a	1	0.4784	A	C	b	r	900	1	6	11	29-May-16	28	blue	l	1	0.4923	A	D	r	b	900	1	6	11	29-May-16	29	blue	k	1	0.4431	A	C	r	b	900	1	6	11	29-May-16	30	blue	s	0	0.498	B	D	r	b	900	1	6	11	29-May-16	31	blue	l	0	0.4728	C	D	b	r	900	1	6	11	29-May-16	32	blue	a	1	0.5208	B	A	r	b	900	1	6	11	29-May-16	1	Red	l	1	0.5399	A	D	b	r	900	1	6	11	29-May-16	2	Red	a	1	0.4587	C	A	b	r	900	1	6	11	29-May-16	3	Red	a	1	0.4166	A	B	r	b	900	1	6	11	29-May-16	4	Red	l	1	0.5356	D	B	r	b	900	1	6	11	29-May-16	5	Red	s	1	0.664	B	A	r	b	900	1	6	11	29-May-16	6	Red	l	1	0.5677	D	B	r	b	900	1	6	11	29-May-16	7	Red	a	1	0.3493	A	B	r	b	900	1	6	11	29-May-16	8	Red	l	0	0.4306	C	A	b	r	900	1	6	11	29-May-16	9	Red	a	1	0.3322	A	D	r	b	900	1	6	11	29-May-16	10	Red	a	0	0.4118	B	A	r	b	900	1	6	11	29-May-16	11	Red	k	1	0.6034	C	B	r	b	900	1	6	11	29-May-16	12	Red	k	0	0.545	B	A	r	b	900	1	6	11	29-May-16	13	Red	l	0	0.6886	A	C	b	r	900	1	6	11	29-May-16	14	Red	k	1	0.6062	D	C	b	r	900	1	6	11	29-May-16	15	Red	a	1	0.5109	C	A	b	r	900	1	6	11	29-May-16	16	Red	s	1	0.4204	D	B	b	r	900	1	6	11	29-May-16	17	Red	l	1	0.563	B	D	b	r	900	1	6	11	29-May-16	18	Red	a	1	0.5072	A	D	r	b	900	1	6	11	29-May-16	19	Red	l	1	0.5155	C	D	b	r	900	1	6	11	29-May-16	20	Red	k	1	0.4892	B	C	b	r	900	1	6	11	29-May-16	21	Red	k	1	0.5778	C	B	r	b	900	1	6	11	29-May-16	22	Red	a	1	0.4962	C	A	b	r	900	1	6	11	29-May-16	23	Red	l	1	0.6072	D	B	r	b	900	1	6	11	29-May-16	24	Red	k	0	0.7334	B	D	r	b	900	1	6	11	29-May-16	25	Red	NaN	NaN	0	D	C	r	b	900	1	6	11	29-May-16	26	Red	NaN	NaN	0	A	B	b	r	900	1	6	11	29-May-16	27	Red	a	0	0.467	B	D	r	b	900	1	6	11	29-May-16	28	Red	NaN	NaN	0	C	D	r	b	900	1	6	11	29-May-16	29	Red	a	0	0.1379	D	C	r	b	900	1	6	11	29-May-16	30	Red	l	0	0.1865	B	A	r	b	900	1	6	11	29-May-16	31	Red	s	0	0.2565	D	C	b	r	900	1	6	11	29-May-16	32	Red	a	0	0.3188	C	A	r	b	900	1	6	11	29-May-16	1	blue	k	1	0.817	D	C	r	b	900	1	6	11	29-May-16	2	blue	l	1	0.7266	D	C	b	r	900	1	6	11	29-May-16	3	blue	l	1	0.5272	D	A	b	r	900	1	6	11	29-May-16	4	blue	k	1	0.4142	C	B	b	r	900	1	6	11	29-May-16	5	blue	a	1	0.3406	A	B	b	r	900	1	6	11	29-May-16	6	blue	k	1	0.6202	C	B	b	r	900	1	6	11	29-May-16	7	blue	s	1	0.6349	B	D	b	r	900	1	6	11	29-May-16	8	blue	s	0	0.4641	C	D	b	r	900	1	6	11	29-May-16	9	blue	l	1	0.5524	D	B	b	r	900	1	6	11	29-May-16	10	blue	l	1	0.7911	A	D	r	b	900	1	6	11	29-May-16	11	blue	k	1	0.5329	C	B	b	r	900	1	6	11	29-May-16	12	blue	a	1	0.4217	B	A	r	b	900	1	6	11	29-May-16	13	blue	a	1	0.4433	D	A	r	b	900	1	6	11	29-May-16	14	blue	l	1	0.6111	B	D	r	b	900	1	6	11	29-May-16	15	blue	k	0	0.611	D	B	r	b	900	1	6	11	29-May-16	16	blue	s	1	0.6096	B	C	b	r	900	1	6	11	29-May-16	17	blue	a	1	0.3837	A	C	b	r	900	1	6	11	29-May-16	18	blue	a	1	0.4792	A	D	b	r	900	1	6	11	29-May-16	19	blue	l	1	0.3738	A	D	r	b	900	1	6	11	29-May-16	20	blue	s	1	0.7106	A	B	r	b	900	1	6	11	29-May-16	21	blue	s	1	0.5658	C	B	r	b	900	1	6	11	29-May-16	22	blue	a	1	0.4362	B	A	r	b	900	1	6	11	29-May-16	23	blue	l	1	0.4439	D	A	b	r	900	1	6	11	29-May-16	24	blue	k	1	0.4257	C	B	b	r	900	1	6	11	29-May-16	25	blue	k	1	0.5441	C	A	b	r	900	1	6	11	29-May-16	26	blue	s	1	0.7279	C	B	r	b	900	1	6	11	29-May-16	27	blue	a	1	0.383	A	C	b	r	900	1	6	11	29-May-16	28	blue	k	1	0.6157	C	B	b	r	900	1	6	11	29-May-16	29	blue	k	0	0.7114	C	B	r	b	900	1	6	11	29-May-16	30	blue	l	0	0.6063	C	B	r	b	900	1	6	11	29-May-16	31	blue	NaN	99	0	D	A	r	b	900	1	6	11	29-May-16	32	blue	NaN	99	0	A	D	r	b	900	1	6	11	29-May-16	1	Red	k	0	0.5344	C	B	b	r	900	1	6	11	29-May-16	2	Red	l	0	0.5158	B	C	b	r	900	1	6	11	29-May-16	3	Red	a	1	0.7143	C	A	b	r	900	1	6	11	29-May-16	4	Red	s	1	0.4506	D	B	b	r	900	1	6	11	29-May-16	5	Red	s	1	0.5142	B	D	r	b	900	1	6	11	29-May-16	6	Red	k	1	0.4957	B	C	b	r	900	1	6	11	29-May-16	7	Red	k	1	0.4101	B	C	b	r	900	1	6	11	29-May-16	8	Red	l	1	0.5284	C	D	b	r	900	1	6	11	29-May-16	9	Red	s	0	0.7915	C	B	r	b	900	1	6	11	29-May-16	10	Red	a	0	0.63	D	A	r	b	900	1	6	11	29-May-16	11	Red	l	1	0.5803	C	D	b	r	900	1	6	11	29-May-16	12	Red	l	1	0.4834	D	B	r	b	900	1	6	11	29-May-16	13	Red	a	1	0.5008	A	C	r	b	900	1	6	11	29-May-16	14	Red	s	1	0.5698	D	B	b	r	900	1	6	11	29-May-16	15	Red	k	1	0.5546	C	D	r	b	900	1	6	11	29-May-16	16	Red	s	1	0.5702	B	C	r	b	900	1	6	11	29-May-16	17	Red	s	1	0.5436	D	B	b	r	900	1	6	11	29-May-16	18	Red	a	1	0.4161	A	B	r	b	900	1	6	11	29-May-16	19	Red	a	1	0.463	A	D	r	b	900	1	6	11	29-May-16	20	Red	l	1	0.3422	B	D	b	r	900	1	6	11	29-May-16	21	Red	a	1	0.4925	C	A	b	r	900	1	6	11	29-May-16	22	Red	k	1	0.651	A	C	b	r	900	1	6	11	29-May-16	23	Red	l	1	0.5626	C	D	b	r	900	1	6	11	29-May-16	24	Red	l	1	0.497	B	D	b	r	900	1	6	11	29-May-16	25	Red	a	1	0.5217	B	A	b	r	900	1	6	11	29-May-16	26	Red	a	1	0.5367	B	A	b	r	900	1	6	11	29-May-16	27	Red	a	1	0.5366	A	D	r	b	900	1	6	11	29-May-16	28	Red	l	1	0.4948	D	C	r	b	900	1	6	11	29-May-16	29	Red	s	1	0.6941	B	D	r	b	900	1	6	11	29-May-16	30	Red	s	1	0.5255	D	B	b	r	900	1	6	11	29-May-16	31	Red	k	1	0.5077	D	C	b	r	900	1	6	11	29-May-16	32	Red	k	1	0.5234	A	C	b	r	900	1	6	15	26-May-16	1	blue	k	1	0.8843	C	A	b	r	2000	1	6	15	26-May-16	2	blue	k	1	0.539	C	B	b	r	2000	1	6	15	26-May-16	3	blue	l	1	0.5804	A	D	r	b	2000	1	6	15	26-May-16	4	blue	k	1	0.5631	C	D	b	r	2000	1	6	15	26-May-16	5	blue	k	1	0.5087	A	C	r	b	2000	1	6	15	26-May-16	6	blue	a	1	0.5402	B	A	r	b	2000	1	6	15	26-May-16	7	blue	l	1	0.5241	D	C	b	r	2000	1	6	15	26-May-16	8	blue	a	1	0.6844	A	B	b	r	2000	1	6	15	26-May-16	9	blue	a	1	0.6112	C	A	r	b	2000	1	6	15	26-May-16	10	blue	s	1	0.596	B	D	b	r	2000	1	6	15	26-May-16	11	blue	s	1	0.6123	A	B	r	b	2000	1	6	15	26-May-16	12	blue	l	1	0.5468	D	B	b	r	2000	1	6	15	26-May-16	13	blue	k	1	0.5714	C	B	b	r	2000	1	6	15	26-May-16	14	blue	l	1	0.5651	D	C	b	r	2000	1	6	15	26-May-16	15	blue	k	0	0.5482	C	D	r	b	2000	1	6	15	26-May-16	16	blue	k	1	0.4759	C	D	b	r	2000	1	6	15	26-May-16	17	blue	s	1	0.4857	B	C	b	r	2000	1	6	15	26-May-16	18	blue	s	1	0.4605	B	C	b	r	2000	1	6	15	26-May-16	19	blue	s	1	0.5579	C	B	r	b	2000	1	6	15	26-May-16	20	blue	l	1	0.6526	A	D	r	b	2000	1	6	15	26-May-16	21	blue	l	1	0.524	A	D	r	b	2000	1	6	15	26-May-16	22	blue	s	0	0.612	D	A	b	r	2000	1	6	15	26-May-16	23	blue	a	1	0.6366	C	A	r	b	2000	1	6	15	26-May-16	24	blue	k	1	0.5568	B	C	r	b	2000	1	6	15	26-May-16	25	blue	s	1	0.6212	B	D	b	r	2000	1	6	15	26-May-16	26	blue	a	1	0.4778	D	A	r	b	2000	1	6	15	26-May-16	27	blue	a	1	0.4141	B	A	r	b	2000	1	6	15	26-May-16	28	blue	l	0	0.4456	A	B	r	b	2000	1	6	15	26-May-16	29	blue	s	0	0.4703	D	A	r	b	2000	1	6	15	26-May-16	30	blue	a	1	0.7889	A	B	b	r	2000	1	6	15	26-May-16	31	blue	k	1	0.8045	C	A	b	r	2000	1	6	15	26-May-16	32	blue	s	1	0.6831	D	B	r	b	2000	1	6	15	26-May-16	1	Red	a	1	0.6074	D	A	b	r	2000	1	6	15	26-May-16	2	Red	a	1	0.4962	D	A	b	r	2000	1	6	15	26-May-16	3	Red	s	1	0.5191	D	B	b	r	2000	1	6	15	26-May-16	4	Red	s	1	0.4726	B	D	r	b	2000	1	6	15	26-May-16	5	Red	l	1	0.6559	D	A	r	b	2000	1	6	15	26-May-16	6	Red	s	0	0.8073	D	A	b	r	2000	1	6	15	26-May-16	7	Red	l	1	0.5365	D	B	r	b	2000	1	6	15	26-May-16	8	Red	a	1	0.4568	A	C	r	b	2000	1	6	15	26-May-16	9	Red	a	0	0.4497	B	A	r	b	2000	1	6	15	26-May-16	10	Red	k	1	0.5207	D	C	b	r	2000	1	6	15	26-May-16	11	Red	k	1	0.5047	C	D	r	b	2000	1	6	15	26-May-16	12	Red	s	1	0.7139	C	B	b	r	2000	1	6	15	26-May-16	13	Red	l	0	0.6568	B	C	b	r	2000	1	6	15	26-May-16	14	Red	l	1	0.6178	A	D	b	r	2000	1	6	15	26-May-16	15	Red	s	1	0.6822	B	A	r	b	2000	1	6	15	26-May-16	16	Red	a	1	0.4979	D	A	b	r	2000	1	6	15	26-May-16	17	Red	k	1	0.3791	B	C	b	r	2000	1	6	15	26-May-16	18	Red	l	1	0.5616	C	D	b	r	2000	1	6	15	26-May-16	19	Red	k	1	0.5394	C	A	r	b	2000	1	6	15	26-May-16	20	Red	k	1	0.4663	C	D	r	b	2000	1	6	15	26-May-16	21	Red	a	1	0.4756	A	B	r	b	2000	1	6	15	26-May-16	22	Red	k	0	0.4838	B	A	r	b	2000	1	6	15	26-May-16	23	Red	k	1	0.5543	D	C	b	r	2000	1	6	15	26-May-16	24	Red	k	0	0.4758	B	C	r	b	2000	1	6	15	26-May-16	25	Red	l	1	0.5318	D	C	r	b	2000	1	6	15	26-May-16	26	Red	l	1	0.5163	B	D	b	r	2000	1	6	15	26-May-16	27	Red	l	1	0.5787	B	D	b	r	2000	1	6	15	26-May-16	28	Red	k	1	0.5003	C	B	r	b	2000	1	6	15	26-May-16	29	Red	s	1	0.5956	B	D	r	b	2000	1	6	15	26-May-16	30	Red	l	1	0.6355	D	A	r	b	2000	1	6	15	26-May-16	31	Red	a	1	0.5633	C	A	b	r	2000	1	6	15	26-May-16	32	Red	s	0	0.5476	A	C	r	b	2000	1	6	15	26-May-16	1	blue	l	1	0.6121	A	D	r	b	2000	1	6	15	26-May-16	2	blue	k	1	0.5369	D	C	r	b	2000	1	6	15	26-May-16	3	blue	s	1	0.8166	B	A	b	r	2000	1	6	15	26-May-16	4	blue	s	1	0.5547	B	A	b	r	2000	1	6	15	26-May-16	5	blue	k	1	0.6015	C	A	b	r	2000	1	6	15	26-May-16	6	blue	a	1	0.6493	C	A	r	b	2000	1	6	15	26-May-16	7	blue	l	1	0.5469	A	D	r	b	2000	1	6	15	26-May-16	8	blue	l	1	0.4994	D	B	b	r	2000	1	6	15	26-May-16	9	blue	s	1	0.5138	A	B	r	b	2000	1	6	15	26-May-16	10	blue	l	1	0.5316	A	D	r	b	2000	1	6	15	26-May-16	11	blue	s	0	0.5537	C	D	b	r	2000	1	6	15	26-May-16	12	blue	s	1	0.5309	B	D	b	r	2000	1	6	15	26-May-16	13	blue	a	1	0.491	C	A	r	b	2000	1	6	15	26-May-16	14	blue	a	1	0.7949	A	B	b	r	2000	1	6	15	26-May-16	15	blue	s	0	0.906	B	C	r	b	2000	1	6	15	26-May-16	16	blue	l	1	0.5631	C	D	r	b	2000	1	6	15	26-May-16	17	blue	l	1	0.4492	C	D	r	b	2000	1	6	15	26-May-16	18	blue	s	1	0.4894	B	D	b	r	2000	1	6	15	26-May-16	19	blue	s	1	0.4664	B	D	b	r	2000	1	6	15	26-May-16	20	blue	a	1	0.5534	B	A	r	b	2000	1	6	15	26-May-16	21	blue	a	1	0.4032	A	C	b	r	2000	1	6	15	26-May-16	22	blue	a	1	0.4992	C	A	r	b	2000	1	6	15	26-May-16	23	blue	s	0	0.5302	C	D	b	r	2000	1	6	15	26-May-16	24	blue	l	1	0.5141	D	A	b	r	2000	1	6	15	26-May-16	25	blue	NaN	99	0	D	B	r	b	2000	1	6	15	26-May-16	26	blue	NaN	NaN	0	B	D	r	b	2000	1	6	15	26-May-16	27	blue	s	0	0.8729	A	C	b	r	2000	1	6	15	26-May-16	28	blue	l	0	0.7125	D	C	r	b	2000	1	6	15	26-May-16	29	blue	s	0	0.5041	C	D	b	r	2000	1	6	15	26-May-16	30	blue	s	1	0.5444	B	D	b	r	2000	1	6	15	26-May-16	31	blue	a	1	0.5059	C	A	r	b	2000	1	6	15	26-May-16	32	blue	k	1	0.3761	C	D	b	r	2000	1	6	15	26-May-16	1	Red	a	1	0.5437	B	A	b	r	2000	1	6	15	26-May-16	2	Red	a	1	0.5827	A	B	r	b	2000	1	6	15	26-May-16	3	Red	k	1	0.6462	A	C	b	r	2000	1	6	15	26-May-16	4	Red	k	1	0.8561	C	D	r	b	2000	1	6	15	26-May-16	5	Red	l	1	0.5522	D	A	r	b	2000	1	6	15	26-May-16	6	Red	k	1	0.4969	A	C	b	r	2000	1	6	15	26-May-16	7	Red	l	1	0.5531	D	A	r	b	2000	1	6	15	26-May-16	8	Red	l	1	0.6398	C	D	b	r	2000	1	6	15	26-May-16	9	Red	l	1	0.4551	D	B	r	b	2000	1	6	15	26-May-16	10	Red	a	1	0.5614	A	B	r	b	2000	1	6	15	26-May-16	11	Red	k	1	0.4894	C	B	r	b	2000	1	6	15	26-May-16	12	Red	s	1	0.5678	A	B	b	r	2000	1	6	15	26-May-16	13	Red	l	1	0.5841	A	D	b	r	2000	1	6	15	26-May-16	14	Red	s	1	0.52	C	B	b	r	2000	1	6	15	26-May-16	15	Red	a	1	0.3758	A	B	r	b	2000	1	6	15	26-May-16	16	Red	k	0	0.4811	C	B	b	r	2000	1	6	15	26-May-16	17	Red	s	1	0.5849	A	B	b	r	2000	1	6	15	26-May-16	18	Red	a	1	0.5358	D	A	b	r	2000	1	6	15	26-May-16	19	Red	NaN	99	0	C	D	r	b	2000	1	6	15	26-May-16	20	Red	NaN	NaN	0	A	D	b	r	2000	1	6	15	26-May-16	21	Red	s	0	0.5737	D	C	b	r	2000	1	6	15	26-May-16	22	Red	s	1	0.5173	B	A	r	b	2000	1	6	15	26-May-16	23	Red	s	1	0.5261	B	A	r	b	2000	1	6	15	26-May-16	24	Red	s	1	0.4453	B	D	r	b	2000	1	6	15	26-May-16	25	Red	l	1	0.4784	D	B	r	b	2000	1	6	15	26-May-16	26	Red	s	1	0.8147	A	B	b	r	2000	1	6	15	26-May-16	27	Red	l	1	0.5972	B	D	b	r	2000	1	6	15	26-May-16	28	Red	s	0	0.5024	A	C	b	r	2000	1	6	15	26-May-16	29	Red	a	1	0.4954	A	B	r	b	2000	1	6	15	26-May-16	30	Red	a	1	0.5588	C	A	b	r	2000	1	6	15	26-May-16	31	Red	a	1	0.4545	A	C	r	b	2000	1	6	15	26-May-16	32	Red	k	1	0.5022	C	B	r	b	2000	1	6	15	26-May-16	1	blue	s	1	0.7184	A	B	r	b	900	1	6	15	26-May-16	2	blue	a	1	0.6608	A	B	b	r	900	1	6	15	26-May-16	3	blue	l	1	0.5389	D	A	b	r	900	1	6	15	26-May-16	4	blue	l	1	0.5307	D	C	b	r	900	1	6	15	26-May-16	5	blue	s	1	0.49	B	D	b	r	900	1	6	15	26-May-16	6	blue	k	1	0.5054	C	D	b	r	900	1	6	15	26-May-16	7	blue	a	1	0.4327	A	C	b	r	900	1	6	15	26-May-16	8	blue	s	0	0.6144	B	C	r	b	900	1	6	15	26-May-16	9	blue	a	1	0.5112	A	B	b	r	900	1	6	15	26-May-16	10	blue	l	1	0.4787	A	D	r	b	900	1	6	15	26-May-16	11	blue	k	1	0.4927	C	B	b	r	900	1	6	15	26-May-16	12	blue	l	1	0.565	D	C	b	r	900	1	6	15	26-May-16	13	blue	a	1	0.5638	D	A	r	b	900	1	6	15	26-May-16	14	blue	s	1	0.5226	D	B	r	b	900	1	6	15	26-May-16	15	blue	l	1	0.5138	C	D	r	b	900	1	6	15	26-May-16	16	blue	s	1	0.522	B	D	b	r	900	1	6	15	26-May-16	17	blue	k	0	0.4871	D	C	b	r	900	1	6	15	26-May-16	18	blue	k	1	0.4613	C	D	b	r	900	1	6	15	26-May-16	19	blue	s	1	0.661	B	C	b	r	900	1	6	15	26-May-16	20	blue	a	0	0.4443	D	B	r	b	900	1	6	15	26-May-16	21	blue	a	1	0.4114	A	B	b	r	900	1	6	15	26-May-16	22	blue	s	1	0.363	B	D	b	r	900	1	6	15	26-May-16	23	blue	l	1	0.3144	C	D	r	b	900	1	6	15	26-May-16	24	blue	k	1	0.3862	C	A	b	r	900	1	6	15	26-May-16	25	blue	a	0	0.3609	C	B	b	r	900	1	6	15	26-May-16	26	blue	l	1	0.5288	C	D	r	b	900	1	6	15	26-May-16	27	blue	s	0	0.4639	B	A	r	b	900	1	6	15	26-May-16	28	blue	k	1	0.4961	A	C	r	b	900	1	6	15	26-May-16	29	blue	s	1	0.5347	C	B	r	b	900	1	6	15	26-May-16	30	blue	a	1	0.3986	A	C	b	r	900	1	6	15	26-May-16	31	blue	s	0	0.4056	C	A	b	r	900	1	6	15	26-May-16	32	blue	a	1	0.3883	D	A	r	b	900	1	6	15	26-May-16	1	Red	s	1	0.4965	B	C	r	b	900	1	6	15	26-May-16	2	Red	k	1	0.5187	C	A	r	b	900	1	6	15	26-May-16	3	Red	a	1	0.4864	C	A	b	r	900	1	6	15	26-May-16	4	Red	l	1	0.5077	C	D	b	r	900	1	6	15	26-May-16	5	Red	s	1	0.557	A	B	b	r	900	1	6	15	26-May-16	6	Red	l	1	0.4745	D	C	r	b	900	1	6	15	26-May-16	7	Red	l	1	0.4831	B	D	b	r	900	1	6	15	26-May-16	8	Red	a	1	0.4725	C	A	b	r	900	1	6	15	26-May-16	9	Red	l	1	0.5057	D	B	r	b	900	1	6	15	26-May-16	10	Red	k	1	0.4722	C	B	r	b	900	1	6	15	26-May-16	11	Red	a	1	0.465	B	A	b	r	900	1	6	15	26-May-16	12	Red	s	1	0.4158	D	B	b	r	900	1	6	15	26-May-16	13	Red	k	1	0.4876	C	B	r	b	900	1	6	15	26-May-16	14	Red	a	1	0.4295	A	B	r	b	900	1	6	15	26-May-16	15	Red	s	0	0.4921	D	C	b	r	900	1	6	15	26-May-16	16	Red	l	1	0.4834	D	C	r	b	900	1	6	15	26-May-16	17	Red	a	1	0.4018	A	D	r	b	900	1	6	15	26-May-16	18	Red	k	0	0.4645	B	A	r	b	900	1	6	15	26-May-16	19	Red	l	1	0.4477	B	D	b	r	900	1	6	15	26-May-16	20	Red	l	1	0.4656	D	B	r	b	900	1	6	15	26-May-16	21	Red	k	1	0.4546	A	C	b	r	900	1	6	15	26-May-16	22	Red	k	1	0.4379	B	C	b	r	900	1	6	15	26-May-16	23	Red	a	1	0.4769	A	B	r	b	900	1	6	15	26-May-16	24	Red	k	0	0.6514	A	D	b	r	900	1	6	15	26-May-16	25	Red	a	1	0.5474	C	A	b	r	900	1	6	15	26-May-16	26	Red	s	1	0.3699	B	D	r	b	900	1	6	15	26-May-16	27	Red	k	1	0.4171	C	D	r	b	900	1	6	15	26-May-16	28	Red	s	1	0.5452	B	D	r	b	900	1	6	15	26-May-16	29	Red	a	1	0.3935	D	A	b	r	900	1	6	15	26-May-16	30	Red	s	1	0.5269	B	A	r	b	900	1	6	15	26-May-16	31	Red	a	0	0.3902	B	A	r	b	900	1	6	15	26-May-16	32	Red	l	0	0.445	A	C	b	r	900	1	6	15	26-May-16	1	blue	NaN	NaN	0	B	A	b	r	900	1	6	15	26-May-16	2	blue	k	1	0.5419	C	A	b	r	900	1	6	15	26-May-16	3	blue	l	1	0.5089	D	B	b	r	900	1	6	15	26-May-16	4	blue	NaN	NaN	0	C	B	r	b	900	1	6	15	26-May-16	5	blue	k	0	0.4912	B	D	b	r	900	1	6	15	26-May-16	6	blue	s	0	0.3766	D	A	r	b	900	1	6	15	26-May-16	7	blue	NaN	NaN	0	D	A	r	b	900	1	6	15	26-May-16	8	blue	k	1	0.4806	B	C	r	b	900	1	6	15	26-May-16	9	blue	NaN	NaN	0	A	B	r	b	900	1	6	15	26-May-16	10	blue	l	1	0.4635	C	D	r	b	900	1	6	15	26-May-16	11	blue	s	0	0.3658	A	D	b	r	900	1	6	15	26-May-16	12	blue	l	1	0.4523	D	B	b	r	900	1	6	15	26-May-16	13	blue	NaN	NaN	0	B	C	r	b	900	1	6	15	26-May-16	14	blue	s	0	0.4349	D	A	r	b	900	1	6	15	26-May-16	15	blue	s	0	0.7392	A	D	r	b	900	1	6	15	26-May-16	16	blue	l	0	0.604	B	D	b	r	900	1	6	15	26-May-16	17	blue	NaN	NaN	0	C	B	b	r	900	1	6	15	26-May-16	18	blue	l	1	0.4958	B	D	r	b	900	1	6	15	26-May-16	19	blue	s	0	0.431	A	D	b	r	900	1	6	15	26-May-16	20	blue	s	0	0.4541	A	B	b	r	900	1	6	15	26-May-16	21	blue	k	0	0.47	B	C	b	r	900	1	6	15	26-May-16	22	blue	k	1	0.4616	B	C	r	b	900	1	6	15	26-May-16	23	blue	l	1	0.4769	A	D	r	b	900	1	6	15	26-May-16	24	blue	NaN	NaN	0	C	B	r	b	900	1	6	15	26-May-16	25	blue	k	1	0.5071	D	C	r	b	900	1	6	15	26-May-16	26	blue	k	1	0.4892	D	C	r	b	900	1	6	15	26-May-16	27	blue	s	0	0.3687	A	B	b	r	900	1	6	15	26-May-16	28	blue	l	1	0.455	D	C	b	r	900	1	6	15	26-May-16	29	blue	k	0	0.4236	D	B	b	r	900	1	6	15	26-May-16	30	blue	s	0	0.3658	A	C	r	b	900	1	6	15	26-May-16	31	blue	s	0	0.4051	A	C	b	r	900	1	6	15	26-May-16	32	blue	NaN	NaN	0	B	D	b	r	900	1	6	15	26-May-16	1	Red	l	1	0.4336	D	A	r	b	900	1	6	15	26-May-16	2	Red	k	0	0.471	B	C	r	b	900	1	6	15	26-May-16	3	Red	k	1	0.4786	C	D	r	b	900	1	6	15	26-May-16	4	Red	a	1	0.3566	A	C	r	b	900	1	6	15	26-May-16	5	Red	s	1	0.4373	C	B	b	r	900	1	6	15	26-May-16	6	Red	l	1	0.4283	C	D	b	r	900	1	6	15	26-May-16	7	Red	l	0	0.3874	C	A	b	r	900	1	6	15	26-May-16	8	Red	l	1	0.4827	D	A	r	b	900	1	6	15	26-May-16	9	Red	a	1	0.5542	C	A	b	r	900	1	6	15	26-May-16	10	Red	s	0	0.6634	C	B	r	b	900	1	6	15	26-May-16	11	Red	a	1	0.4871	D	A	b	r	900	1	6	15	26-May-16	12	Red	s	1	0.3433	B	C	r	b	900	1	6	15	26-May-16	13	Red	l	0	0.3811	A	B	b	r	900	1	6	15	26-May-16	14	Red	l	1	0.4836	D	C	r	b	900	1	6	15	26-May-16	15	Red	l	1	0.4511	D	C	r	b	900	1	6	15	26-May-16	16	Red	s	1	0.4671	D	B	b	r	900	1	6	15	26-May-16	17	Red	k	1	0.499	C	D	r	b	900	1	6	15	26-May-16	18	Red	a	1	0.5126	C	A	b	r	900	1	6	15	26-May-16	19	Red	a	0	0.4234	C	A	r	b	900	1	6	15	26-May-16	20	Red	a	1	0.4218	D	A	b	r	900	1	6	15	26-May-16	21	Red	s	1	0.5029	A	B	b	r	900	1	6	15	26-May-16	22	Red	k	1	0.5238	B	C	b	r	900	1	6	15	26-May-16	23	Red	l	1	0.4512	D	A	r	b	900	1	6	15	26-May-16	24	Red	s	1	0.4599	D	B	b	r	900	1	6	15	26-May-16	25	Red	k	1	0.5149	B	C	b	r	900	1	6	15	26-May-16	26	Red	k	1	0.4255	B	C	b	r	900	1	6	15	26-May-16	27	Red	a	1	0.3926	A	C	r	b	900	1	6	15	26-May-16	28	Red	l	1	0.5782	D	B	r	b	900	1	6	15	26-May-16	29	Red	k	0	0.4166	D	B	b	r	900	1	6	15	26-May-16	30	Red	a	1	0.3839	A	D	r	b	900	1	6	15	26-May-16	31	Red	s	0	0.3976	B	D	b	r	900	1	6	15	26-May-16	32	Red	k	1	0.5017	D	C	b	r	900	1	6	15	26-May-16	1	blue	s	1	0.5548	B	C	b	r	2000	1	6	15	26-May-16	2	blue	s	1	0.5205	B	D	b	r	2000	1	6	15	26-May-16	3	blue	l	1	0.4732	D	C	b	r	2000	1	6	15	26-May-16	4	blue	a	1	0.4737	A	B	b	r	2000	1	6	15	26-May-16	5	blue	s	1	0.4888	B	C	b	r	2000	1	6	15	26-May-16	6	blue	a	1	0.4969	A	D	b	r	2000	1	6	15	26-May-16	7	blue	s	0	0.5144	C	D	b	r	2000	1	6	15	26-May-16	8	blue	k	1	0.4726	C	B	b	r	2000	1	6	15	26-May-16	9	blue	l	0	0.4257	D	B	r	b	2000	1	6	15	26-May-16	10	blue	a	1	0.4257	A	B	b	r	2000	1	6	15	26-May-16	11	blue	k	0	0.465	B	C	b	r	2000	1	6	15	26-May-16	12	blue	l	1	0.4969	B	D	r	b	2000	1	6	15	26-May-16	13	blue	a	1	0.4817	B	A	r	b	2000	1	6	15	26-May-16	14	blue	l	1	0.57	D	C	b	r	2000	1	6	15	26-May-16	15	blue	a	1	0.5384	C	A	r	b	2000	1	6	15	26-May-16	16	blue	s	1	0.4574	C	B	r	b	2000	1	6	15	26-May-16	17	blue	l	1	0.4905	D	C	b	r	2000	1	6	15	26-May-16	18	blue	l	1	0.4102	C	D	r	b	2000	1	6	15	26-May-16	19	blue	k	1	0.5379	C	D	b	r	2000	1	6	15	26-May-16	20	blue	k	1	0.5537	D	C	r	b	2000	1	6	15	26-May-16	21	blue	a	1	0.4887	D	A	r	b	2000	1	6	15	26-May-16	22	blue	a	0	0.4728	C	A	b	r	2000	1	6	15	26-May-16	23	blue	a	0	0.7607	B	D	b	r	2000	1	6	15	26-May-16	24	blue	k	1	0.5855	C	A	b	r	2000	1	6	15	26-May-16	25	blue	a	1	0.4354	A	B	b	r	2000	1	6	15	26-May-16	26	blue	s	1	0.5304	D	B	r	b	2000	1	6	15	26-May-16	27	blue	a	0	0.3707	C	B	b	r	2000	1	6	15	26-May-16	28	blue	a	1	0.5301	D	A	r	b	2000	1	6	15	26-May-16	29	blue	k	1	0.4757	C	B	b	r	2000	1	6	15	26-May-16	30	blue	l	1	0.3153	A	D	r	b	2000	1	6	15	26-May-16	31	blue	a	0	0.4588	D	A	b	r	2000	1	6	15	26-May-16	32	blue	l	1	0.452	A	D	r	b	2000	1	6	15	26-May-16	1	Red	k	1	0.5614	C	D	r	b	2000	1	6	15	26-May-16	2	Red	a	1	0.5381	A	D	r	b	2000	1	6	15	26-May-16	3	Red	s	1	0.5539	B	A	r	b	2000	1	6	15	26-May-16	4	Red	a	1	0.4966	D	A	b	r	2000	1	6	15	26-May-16	5	Red	a	1	0.3774	A	C	r	b	2000	1	6	15	26-May-16	6	Red	s	0	0.4411	B	A	b	r	2000	1	6	15	26-May-16	7	Red	k	1	0.6011	C	A	r	b	2000	1	6	15	26-May-16	8	Red	l	1	0.4095	D	B	r	b	2000	1	6	15	26-May-16	9	Red	l	1	0.4325	D	A	r	b	2000	1	6	15	26-May-16	10	Red	l	1	0.4183	B	D	b	r	2000	1	6	15	26-May-16	11	Red	a	0	0.4098	A	B	b	r	2000	1	6	15	26-May-16	12	Red	k	1	0.4497	A	C	b	r	2000	1	6	15	26-May-16	13	Red	k	1	0.4009	C	A	r	b	2000	1	6	15	26-May-16	14	Red	s	1	0.4504	B	C	r	b	2000	1	6	15	26-May-16	15	Red	a	1	0.3632	A	B	r	b	2000	1	6	15	26-May-16	16	Red	l	1	0.4186	D	A	r	b	2000	1	6	15	26-May-16	17	Red	s	0	0.5225	D	B	r	b	2000	1	6	15	26-May-16	18	Red	s	1	0.378	A	B	b	r	2000	1	6	15	26-May-16	19	Red	s	0	0.4433	D	B	r	b	2000	1	6	15	26-May-16	20	Red	s	1	0.4027	D	B	b	r	2000	1	6	15	26-May-16	21	Red	s	1	0.4583	B	C	r	b	2000	1	6	15	26-May-16	22	Red	k	1	0.4184	C	D	r	b	2000	1	6	15	26-May-16	23	Red	k	1	0.3876	C	B	r	b	2000	1	6	15	26-May-16	24	Red	k	0	0.4115	D	B	r	b	2000	1	6	15	26-May-16	25	Red	l	0	0.4524	C	A	r	b	2000	1	6	15	26-May-16	26	Red	a	1	0.3391	A	D	r	b	2000	1	6	15	26-May-16	27	Red	l	1	0.4847	B	D	b	r	2000	1	6	15	26-May-16	28	Red	s	1	0.5635	C	B	b	r	2000	1	6	15	26-May-16	29	Red	a	1	0.5149	B	A	b	r	2000	1	6	15	26-May-16	30	Red	s	1	0.5076	C	B	b	r	2000	1	6	15	26-May-16	31	Red	a	1	0.5714	B	A	b	r	2000	1	6	15	26-May-16	32	Red	s	0	0.4213	C	B	r	b	2000	1	6	15	26-May-16	1	blue	a	1	0.6894	A	B	b	r	2000	1	6	15	26-May-16	2	blue	s	1	0.4956	B	C	b	r	2000	1	6	15	26-May-16	3	blue	a	1	0.4885	D	A	r	b	2000	1	6	15	26-May-16	4	blue	l	1	0.3992	B	D	r	b	2000	1	6	15	26-May-16	5	blue	s	0	0.5438	C	A	r	b	2000	1	6	15	26-May-16	6	blue	s	0	0.3922	B	D	r	b	2000	1	6	15	26-May-16	7	blue	s	1	0.5359	B	C	b	r	2000	1	6	15	26-May-16	8	blue	a	1	0.5375	C	A	r	b	2000	1	6	15	26-May-16	9	blue	l	0	0.6562	A	C	r	b	2000	1	6	15	26-May-16	10	blue	l	1	0.4966	D	B	b	r	2000	1	6	15	26-May-16	11	blue	k	1	0.5367	C	B	b	r	2000	1	6	15	26-May-16	12	blue	a	0	0.448	A	B	r	b	2000	1	6	15	26-May-16	13	blue	k	1	0.4977	C	B	b	r	2000	1	6	15	26-May-16	14	blue	s	1	0.6485	B	A	b	r	2000	1	6	15	26-May-16	15	blue	a	1	0.584	C	A	r	b	2000	1	6	15	26-May-16	16	blue	k	1	0.5861	A	C	r	b	2000	1	6	15	26-May-16	17	blue	a	0	0.4503	B	D	r	b	2000	1	6	15	26-May-16	18	blue	l	1	0.5129	C	D	r	b	2000	1	6	15	26-May-16	19	blue	k	1	0.4012	B	C	r	b	2000	1	6	15	26-May-16	20	blue	a	1	0.4807	A	C	b	r	2000	1	6	15	26-May-16	21	blue	l	1	0.514	D	A	b	r	2000	1	6	15	26-May-16	22	blue	l	1	0.4898	D	B	b	r	2000	1	6	15	26-May-16	23	blue	a	1	0.691	A	D	b	r	2000	1	6	15	26-May-16	24	blue	k	0	0.6673	A	B	r	b	2000	1	6	15	26-May-16	25	blue	s	1	0.4576	A	B	r	b	2000	1	6	15	26-May-16	26	blue	k	0	0.5618	A	C	b	r	2000	1	6	15	26-May-16	27	blue	l	1	0.4352	B	D	r	b	2000	1	6	15	26-May-16	28	blue	s	0	0.4512	A	C	r	b	2000	1	6	15	26-May-16	29	blue	k	1	0.4438	A	C	r	b	2000	1	6	15	26-May-16	30	blue	a	0	0.476	B	A	b	r	2000	1	6	15	26-May-16	31	blue	s	1	0.8345	B	A	b	r	2000	1	6	15	26-May-16	32	blue	k	1	0.5727	B	C	r	b	2000	1	6	15	26-May-16	1	Red	k	1	0.5826	A	C	b	r	2000	1	6	15	26-May-16	2	Red	a	1	0.5398	A	C	r	b	2000	1	6	15	26-May-16	3	Red	l	1	0.5083	D	B	r	b	2000	1	6	15	26-May-16	4	Red	s	1	0.4053	A	B	b	r	2000	1	6	15	26-May-16	5	Red	l	1	0.4621	D	C	r	b	2000	1	6	15	26-May-16	6	Red	s	0	0.477	B	C	b	r	2000	1	6	15	26-May-16	7	Red	a	1	0.4682	A	C	r	b	2000	1	6	15	26-May-16	8	Red	s	1	0.4615	A	B	b	r	2000	1	6	15	26-May-16	9	Red	s	1	0.5024	D	B	b	r	2000	1	6	15	26-May-16	10	Red	s	1	0.4529	D	B	b	r	2000	1	6	15	26-May-16	11	Red	a	1	0.4864	B	A	b	r	2000	1	6	15	26-May-16	12	Red	l	1	0.3885	B	D	b	r	2000	1	6	15	26-May-16	13	Red	l	1	0.3807	B	D	b	r	2000	1	6	15	26-May-16	14	Red	s	1	0.4699	D	B	b	r	2000	1	6	15	26-May-16	15	Red	l	1	0.4631	C	D	b	r	2000	1	6	15	26-May-16	16	Red	a	1	0.5594	A	D	r	b	2000	1	6	15	26-May-16	17	Red	s	1	0.4713	B	A	r	b	2000	1	6	15	26-May-16	18	Red	a	1	0.6634	C	A	b	r	2000	1	6	15	26-May-16	19	Red	k	1	0.4301	C	B	r	b	2000	1	6	15	26-May-16	20	Red	k	1	0.5341	D	C	b	r	2000	1	6	15	26-May-16	21	Red	k	1	0.4709	C	D	r	b	2000	1	6	15	26-May-16	22	Red	l	1	0.5107	C	D	b	r	2000	1	6	15	26-May-16	23	Red	s	1	0.4947	C	B	b	r	2000	1	6	15	26-May-16	24	Red	k	1	0.5913	A	C	b	r	2000	1	6	15	26-May-16	25	Red	a	0	0.3365	B	A	r	b	2000	1	6	15	26-May-16	26	Red	l	0	0.4797	A	C	b	r	2000	1	6	15	26-May-16	27	Red	l	1	0.5122	D	C	r	b	2000	1	6	15	26-May-16	28	Red	s	0	0.5931	A	C	r	b	2000	1	6	15	26-May-16	29	Red	a	1	0.551	D	A	b	r	2000	1	6	15	26-May-16	30	Red	a	1	0.5042	D	A	b	r	2000	1	6	15	26-May-16	31	Red	l	1	0.4795	D	C	r	b	2000	1	6	15	26-May-16	32	Red	k	1	0.5042	C	A	r	b	2000	1	6	15	26-May-16	1	blue	s	1	0.5466	B	D	b	r	900	1	6	15	26-May-16	2	blue	l	1	0.4883	D	C	b	r	900	1	6	15	26-May-16	3	blue	k	1	0.5533	C	B	b	r	900	1	6	15	26-May-16	4	blue	k	0	0.6709	B	A	b	r	900	1	6	15	26-May-16	5	blue	k	1	0.5037	C	D	b	r	900	1	6	15	26-May-16	6	blue	a	1	0.414	A	D	b	r	900	1	6	15	26-May-16	7	blue	s	1	0.439	D	B	r	b	900	1	6	15	26-May-16	8	blue	s	0	0.4124	B	C	r	b	900	1	6	15	26-May-16	9	blue	l	1	0.4519	B	D	r	b	900	1	6	15	26-May-16	10	blue	k	1	0.4576	C	A	b	r	900	1	6	15	26-May-16	11	blue	l	1	0.5063	D	B	b	r	900	1	6	15	26-May-16	12	blue	NaN	99	0	B	A	b	r	900	1	6	15	26-May-16	13	blue	NaN	NaN	0	D	A	r	b	900	1	6	15	26-May-16	14	blue	s	1	0.4657	C	B	r	b	900	1	6	15	26-May-16	15	blue	k	1	0.522	C	B	b	r	900	1	6	15	26-May-16	16	blue	l	1	0.5365	B	D	r	b	900	1	6	15	26-May-16	17	blue	a	1	0.3848	A	C	b	r	900	1	6	15	26-May-16	18	blue	l	1	0.4721	A	D	r	b	900	1	6	15	26-May-16	19	blue	k	1	0.4537	D	C	r	b	900	1	6	15	26-May-16	20	blue	a	1	0.3506	A	B	b	r	900	1	6	15	26-May-16	21	blue	s	1	0.4284	A	B	r	b	900	1	6	15	26-May-16	22	blue	s	1	0.4194	A	B	r	b	900	1	6	15	26-May-16	23	blue	a	1	0.538	D	A	r	b	900	1	6	15	26-May-16	24	blue	k	1	0.498	A	C	r	b	900	1	6	15	26-May-16	25	blue	l	1	0.5203	D	C	b	r	900	1	6	15	26-May-16	26	blue	k	1	0.527	C	D	b	r	900	1	6	15	26-May-16	27	blue	a	0	0.608	D	A	b	r	900	1	6	15	26-May-16	28	blue	a	1	0.4698	C	A	r	b	900	1	6	15	26-May-16	29	blue	a	1	0.5004	B	A	r	b	900	1	6	15	26-May-16	30	blue	s	1	0.4589	B	D	b	r	900	1	6	15	26-May-16	31	blue	l	1	0.4024	B	D	r	b	900	1	6	15	26-May-16	32	blue	a	1	0.5618	A	D	b	r	900	1	6	15	26-May-16	1	Red	l	1	0.5023	B	D	b	r	900	1	6	15	26-May-16	2	Red	l	1	0.4682	D	A	r	b	900	1	6	15	26-May-16	3	Red	l	1	0.419	D	B	r	b	900	1	6	15	26-May-16	4	Red	s	0	0.4174	C	A	b	r	900	1	6	15	26-May-16	5	Red	s	0	0.4648	D	A	b	r	900	1	6	15	26-May-16	6	Red	k	0	0.4563	D	C	r	b	900	1	6	15	26-May-16	7	Red	s	0	0.4541	B	D	b	r	900	1	6	15	26-May-16	8	Red	k	1	0.4625	C	A	r	b	900	1	6	15	26-May-16	9	Red	k	0	0.5192	B	A	r	b	900	1	6	15	26-May-16	10	Red	k	1	0.5487	D	C	b	r	900	1	6	15	26-May-16	11	Red	s	1	0.4921	B	A	r	b	900	1	6	15	26-May-16	12	Red	s	1	0.4926	D	B	b	r	900	1	6	15	26-May-16	13	Red	l	1	0.4838	D	B	r	b	900	1	6	15	26-May-16	14	Red	k	0	0.4998	B	A	r	b	900	1	6	15	26-May-16	15	Red	a	1	0.3774	A	B	r	b	900	1	6	15	26-May-16	16	Red	s	0	0.4244	A	D	r	b	900	1	6	15	26-May-16	17	Red	l	1	0.4393	D	A	r	b	900	1	6	15	26-May-16	18	Red	s	1	0.6073	A	B	b	r	900	1	6	15	26-May-16	19	Red	a	1	0.5685	D	A	b	r	900	1	6	15	26-May-16	20	Red	k	1	0.5013	C	A	r	b	900	1	6	15	26-May-16	21	Red	s	0	0.4684	C	B	r	b	900	1	6	15	26-May-16	22	Red	a	0	0.3634	C	D	r	b	900	1	6	15	26-May-16	23	Red	a	1	0.4505	B	A	b	r	900	1	6	15	26-May-16	24	Red	l	1	0.4259	D	B	r	b	900	1	6	15	26-May-16	25	Red	l	0	0.4326	C	B	r	b	900	1	6	15	26-May-16	26	Red	l	0	0.6333	D	C	b	r	900	1	6	15	26-May-16	27	Red	k	1	0.5915	C	A	r	b	900	1	6	15	26-May-16	28	Red	a	1	0.4868	A	D	r	b	900	1	6	15	26-May-16	29	Red	s	1	0.4707	D	B	b	r	900	1	6	15	26-May-16	30	Red	s	1	0.5243	B	A	r	b	900	1	6	15	26-May-16	31	Red	s	1	0.4767	D	B	b	r	900	1	6	15	26-May-16	32	Red	a	1	0.3144	A	C	r	b	900	1	6	15	26-May-16	1	blue	k	0	0.5236	D	B	b	r	900	1	6	15	26-May-16	2	blue	s	1	0.5143	B	C	b	r	900	1	6	15	26-May-16	3	blue	k	1	0.5055	C	B	b	r	900	1	6	15	26-May-16	4	blue	k	1	0.4078	D	C	r	b	900	1	6	15	26-May-16	5	blue	k	1	0.3497	D	C	r	b	900	1	6	15	26-May-16	6	blue	s	1	0.4211	C	B	r	b	900	1	6	15	26-May-16	7	blue	l	1	0.556	D	B	b	r	900	1	6	15	26-May-16	8	blue	a	1	0.5308	D	A	r	b	900	1	6	15	26-May-16	9	blue	a	1	0.4575	B	A	r	b	900	1	6	15	26-May-16	10	blue	s	1	0.4656	B	A	b	r	900	1	6	15	26-May-16	11	blue	a	0	0.441	D	B	b	r	900	1	6	15	26-May-16	12	blue	s	1	0.4652	D	B	r	b	900	1	6	15	26-May-16	13	blue	k	0	0.4476	B	D	r	b	900	1	6	15	26-May-16	14	blue	s	1	0.4706	B	C	b	r	900	1	6	15	26-May-16	15	blue	s	1	0.4793	A	B	r	b	900	1	6	15	26-May-16	16	blue	a	1	0.4125	A	D	b	r	900	1	6	15	26-May-16	17	blue	a	1	0.5161	C	A	r	b	900	1	6	15	26-May-16	18	blue	a	1	0.477	B	A	r	b	900	1	6	15	26-May-16	19	blue	l	0	0.3554	D	C	r	b	900	1	6	15	26-May-16	20	blue	a	1	0.4496	D	A	r	b	900	1	6	15	26-May-16	21	blue	s	0	0.4079	A	B	b	r	900	1	6	15	26-May-16	22	blue	a	0	0.4081	B	A	b	r	900	1	6	15	26-May-16	23	blue	a	1	0.4709	B	A	r	b	900	1	6	15	26-May-16	24	blue	s	0	0.3995	B	C	r	b	900	1	6	15	26-May-16	25	blue	a	0	0.3726	B	A	b	r	900	1	6	15	26-May-16	26	blue	a	0	0.4214	D	A	b	r	900	1	6	15	26-May-16	27	blue	s	0	0.4274	A	C	r	b	900	1	6	15	26-May-16	28	blue	k	1	0.5557	C	A	b	r	900	1	6	15	26-May-16	29	blue	l	1	0.4912	D	C	b	r	900	1	6	15	26-May-16	30	blue	l	0	0.5201	C	B	b	r	900	1	6	15	26-May-16	31	blue	s	0	0.5599	B	D	r	b	900	1	6	15	26-May-16	32	blue	k	0	0.5257	D	C	b	r	900	1	6	15	26-May-16	1	Red	s	1	0.4865	B	A	r	b	900	1	6	15	26-May-16	2	Red	l	1	0.4687	A	D	b	r	900	1	6	15	26-May-16	3	Red	NaN	99	0	C	D	r	b	900	1	6	15	26-May-16	4	Red	NaN	NaN	0	D	B	r	b	900	1	6	15	26-May-16	5	Red	s	0	0.467	A	C	b	r	900	1	6	15	26-May-16	6	Red	a	1	0.3772	C	A	b	r	900	1	6	15	26-May-16	7	Red	s	1	0.5442	B	D	r	b	900	1	6	15	26-May-16	8	Red	l	1	0.4238	D	B	r	b	900	1	6	15	26-May-16	9	Red	NaN	99	0	B	D	r	b	900	1	6	15	26-May-16	10	Red	NaN	NaN	0	A	C	r	b	900	1	6	15	26-May-16	11	Red	a	0	0.3556	C	B	r	b	900	1	6	15	26-May-16	12	Red	s	0	0.4507	D	A	b	r	900	1	6	15	26-May-16	13	Red	a	1	0.4661	B	A	b	r	900	1	6	15	26-May-16	14	Red	a	1	0.4509	A	C	r	b	900	1	6	15	26-May-16	15	Red	l	1	0.4893	D	C	r	b	900	1	6	15	26-May-16	16	Red	l	1	0.5671	C	D	b	r	900	1	6	15	26-May-16	17	Red	k	1	0.4866	C	B	r	b	900	1	6	15	26-May-16	18	Red	k	1	0.5353	C	D	r	b	900	1	6	15	26-May-16	19	Red	s	1	0.5427	B	C	r	b	900	1	6	15	26-May-16	20	Red	l	1	0.5581	D	A	r	b	900	1	6	15	26-May-16	21	Red	s	0	0.5717	C	D	r	b	900	1	6	15	26-May-16	22	Red	a	0	0.4266	C	B	b	r	900	1	6	15	26-May-16	23	Red	l	1	0.4734	D	A	r	b	900	1	6	15	26-May-16	24	Red	a	1	0.5621	D	A	b	r	900	1	6	15	26-May-16	25	Red	s	1	0.4961	B	A	r	b	900	1	6	15	26-May-16	26	Red	a	1	0.4562	C	A	b	r	900	1	6	15	26-May-16	27	Red	s	1	0.5977	A	B	b	r	900	1	6	15	26-May-16	28	Red	k	1	0.4073	C	A	r	b	900	1	6	15	26-May-16	29	Red	l	1	0.5973	D	A	r	b	900	1	6	15	26-May-16	30	Red	s	1	0.4608	B	A	r	b	900	1	6	15	26-May-16	31	Red	k	1	0.571	B	C	b	r	900	1	6	15	26-May-16	32	Red	a	1	0.3701	B	A	b	r	900	1	6	15	26-May-16	1	blue	s	1	0.5113	C	B	r	b	2000	1	6	15	26-May-16	2	blue	s	1	0.5258	B	D	b	r	2000	1	6	15	26-May-16	3	blue	s	1	0.4877	D	B	r	b	2000	1	6	15	26-May-16	4	blue	l	1	0.4638	C	D	r	b	2000	1	6	15	26-May-16	5	blue	s	0	0.5431	C	A	r	b	2000	1	6	15	26-May-16	6	blue	k	1	0.5039	C	A	b	r	2000	1	6	15	26-May-16	7	blue	k	1	0.5201	C	B	b	r	2000	1	6	15	26-May-16	8	blue	s	1	0.6066	B	D	b	r	2000	1	6	15	26-May-16	9	blue	a	1	0.51	A	D	b	r	2000	1	6	15	26-May-16	10	blue	l	1	0.447	B	D	r	b	2000	1	6	15	26-May-16	11	blue	a	1	0.4714	A	B	b	r	2000	1	6	15	26-May-16	12	blue	l	1	0.6706	B	D	r	b	2000	1	6	15	26-May-16	13	blue	s	0	0.5514	D	A	r	b	2000	1	6	15	26-May-16	14	blue	a	1	0.5742	D	A	r	b	2000	1	6	15	26-May-16	15	blue	l	1	0.5993	C	D	r	b	2000	1	6	15	26-May-16	16	blue	k	0	0.4875	B	C	b	r	2000	1	6	15	26-May-16	17	blue	s	1	0.592	B	D	b	r	2000	1	6	15	26-May-16	18	blue	k	1	0.5355	C	A	b	r	2000	1	6	15	26-May-16	19	blue	k	1	0.494	D	C	r	b	2000	1	6	15	26-May-16	20	blue	l	1	0.4955	D	A	b	r	2000	1	6	15	26-May-16	21	blue	a	1	0.4857	A	C	b	r	2000	1	6	15	26-May-16	22	blue	k	1	0.5578	D	C	r	b	2000	1	6	15	26-May-16	23	blue	k	1	0.5013	A	C	r	b	2000	1	6	15	26-May-16	24	blue	l	1	0.413	B	D	r	b	2000	1	6	15	26-May-16	25	blue	s	0	0.5246	A	C	b	r	2000	1	6	15	26-May-16	26	blue	l	0	0.5733	D	C	r	b	2000	1	6	15	26-May-16	27	blue	a	1	0.4778	A	D	b	r	2000	1	6	15	26-May-16	28	blue	s	1	0.5152	C	B	r	b	2000	1	6	15	26-May-16	29	blue	k	1	0.5088	C	B	b	r	2000	1	6	15	26-May-16	30	blue	l	1	0.5479	D	C	b	r	2000	1	6	15	26-May-16	31	blue	k	0	0.468	C	B	r	b	2000	1	6	15	26-May-16	32	blue	l	1	0.4999	C	D	r	b	2000	1	6	15	26-May-16	1	Red	s	1	0.5963	B	A	r	b	2000	1	6	15	26-May-16	2	Red	a	1	0.5558	B	A	b	r	2000	1	6	15	26-May-16	3	Red	l	1	0.4931	D	C	r	b	2000	1	6	15	26-May-16	4	Red	l	1	0.5091	D	B	r	b	2000	1	6	15	26-May-16	5	Red	l	1	0.5172	C	D	b	r	2000	1	6	15	26-May-16	6	Red	a	1	0.4282	A	B	r	b	2000	1	6	15	26-May-16	7	Red	s	1	0.5479	B	C	r	b	2000	1	6	15	26-May-16	8	Red	a	1	0.5326	C	A	b	r	2000	1	6	15	26-May-16	9	Red	s	1	0.4925	C	B	b	r	2000	1	6	15	26-May-16	10	Red	a	1	0.5239	C	A	b	r	2000	1	6	15	26-May-16	11	Red	a	1	0.4061	A	C	r	b	2000	1	6	15	26-May-16	12	Red	a	1	0.4522	B	A	b	r	2000	1	6	15	26-May-16	13	Red	k	1	0.5805	C	B	r	b	2000	1	6	15	26-May-16	14	Red	l	1	0.4057	C	D	b	r	2000	1	6	15	26-May-16	15	Red	a	1	0.5022	A	D	r	b	2000	1	6	15	26-May-16	16	Red	l	1	0.4305	B	D	b	r	2000	1	6	15	26-May-16	17	Red	k	1	0.5175	C	B	r	b	2000	1	6	15	26-May-16	18	Red	l	1	0.4369	D	C	r	b	2000	1	6	15	26-May-16	19	Red	k	1	0.534	C	B	r	b	2000	1	6	15	26-May-16	20	Red	s	1	0.5738	A	B	b	r	2000	1	6	15	26-May-16	21	Red	s	1	0.4702	A	B	b	r	2000	1	6	15	26-May-16	22	Red	l	0	0.4315	B	C	b	r	2000	1	6	15	26-May-16	23	Red	k	1	0.5179	C	D	r	b	2000	1	6	15	26-May-16	24	Red	k	1	0.4707	C	A	r	b	2000	1	6	15	26-May-16	25	Red	l	1	0.5022	A	D	b	r	2000	1	6	15	26-May-16	26	Red	a	1	0.4866	A	C	r	b	2000	1	6	15	26-May-16	27	Red	k	1	0.5353	A	C	b	r	2000	1	6	15	26-May-16	28	Red	k	1	0.4481	A	C	b	r	2000	1	6	15	26-May-16	29	Red	s	1	0.5107	C	B	b	r	2000	1	6	15	26-May-16	30	Red	l	1	0.5433	D	B	r	b	2000	1	6	15	26-May-16	31	Red	k	0	0.5113	C	B	b	r	2000	1	6	15	26-May-16	32	Red	s	1	0.5605	B	D	r	b	2000	1	6	15	26-May-16	1	blue	a	1	0.4998	A	D	b	r	2000	1	6	15	26-May-16	2	blue	s	1	0.6036	B	C	b	r	2000	1	6	15	26-May-16	3	blue	s	1	0.5883	C	B	r	b	2000	1	6	15	26-May-16	4	blue	a	1	0.4685	A	C	b	r	2000	1	6	15	26-May-16	5	blue	l	1	0.5236	D	B	b	r	2000	1	6	15	26-May-16	6	blue	s	1	0.5462	B	A	b	r	2000	1	6	15	26-May-16	7	blue	l	1	0.4746	D	C	b	r	2000	1	6	15	26-May-16	8	blue	s	0	0.6115	A	C	r	b	2000	1	6	15	26-May-16	9	blue	k	1	0.5785	C	B	b	r	2000	1	6	15	26-May-16	10	blue	l	1	0.5862	C	D	r	b	2000	1	6	15	26-May-16	11	blue	s	1	0.5294	C	B	r	b	2000	1	6	15	26-May-16	12	blue	s	1	0.505	D	B	r	b	2000	1	6	15	26-May-16	13	blue	s	1	0.5772	B	D	b	r	2000	1	6	15	26-May-16	14	blue	k	1	0.5837	C	B	b	r	2000	1	6	15	26-May-16	15	blue	l	1	0.4966	D	C	b	r	2000	1	6	15	26-May-16	16	blue	a	1	0.6163	B	A	r	b	2000	1	6	15	26-May-16	17	blue	l	1	0.5612	C	D	r	b	2000	1	6	15	26-May-16	18	blue	s	1	0.5205	B	A	b	r	2000	1	6	15	26-May-16	19	blue	l	1	0.5029	A	D	r	b	2000	1	6	15	26-May-16	20	blue	a	1	0.5832	A	C	b	r	2000	1	6	15	26-May-16	21	blue	a	1	0.5517	B	A	r	b	2000	1	6	15	26-May-16	22	blue	k	1	0.4638	A	C	r	b	2000	1	6	15	26-May-16	23	blue	a	1	0.4481	A	D	b	r	2000	1	6	15	26-May-16	24	blue	s	0	0.4553	B	C	r	b	2000	1	6	15	26-May-16	25	blue	l	1	0.5037	A	D	r	b	2000	1	6	15	26-May-16	26	blue	s	1	0.6799	B	A	b	r	2000	1	6	15	26-May-16	27	blue	l	0	0.4478	A	C	r	b	2000	1	6	15	26-May-16	28	blue	k	1	0.5524	C	B	b	r	2000	1	6	15	26-May-16	29	blue	l	1	0.5115	C	D	r	b	2000	1	6	15	26-May-16	30	blue	k	1	0.5749	A	C	r	b	2000	1	6	15	26-May-16	31	blue	a	1	0.3927	C	A	r	b	2000	1	6	15	26-May-16	32	blue	a	1	0.5448	A	B	b	r	2000	1	6	15	26-May-16	1	Red	a	1	0.4871	D	A	b	r	2000	1	6	15	26-May-16	2	Red	s	1	0.5325	D	B	b	r	2000	1	6	15	26-May-16	3	Red	l	1	0.5967	D	C	r	b	2000	1	6	15	26-May-16	4	Red	k	1	0.5739	D	C	b	r	2000	1	6	15	26-May-16	5	Red	a	1	0.3963	A	B	r	b	2000	1	6	15	26-May-16	6	Red	s	1	0.4858	B	A	r	b	2000	1	6	15	26-May-16	7	Red	s	1	0.5501	D	B	b	r	2000	1	6	15	26-May-16	8	Red	l	0	0.5188	D	C	b	r	2000	1	6	15	26-May-16	9	Red	a	1	0.5095	C	A	b	r	2000	1	6	15	26-May-16	10	Red	l	1	0.5262	D	A	r	b	2000	1	6	15	26-May-16	11	Red	k	1	0.5018	C	B	r	b	2000	1	6	15	26-May-16	12	Red	l	1	0.5107	A	D	b	r	2000	1	6	15	26-May-16	13	Red	a	1	0.4856	A	C	r	b	2000	1	6	15	26-May-16	14	Red	a	1	0.4374	A	D	r	b	2000	1	6	15	26-May-16	15	Red	s	1	0.4541	B	D	r	b	2000	1	6	15	26-May-16	16	Red	k	1	0.4792	C	B	r	b	2000	1	6	15	26-May-16	17	Red	k	1	0.5271	C	D	r	b	2000	1	6	15	26-May-16	18	Red	a	0	0.4399	B	A	r	b	2000	1	6	15	26-May-16	19	Red	a	1	0.4953	D	A	b	r	2000	1	6	15	26-May-16	20	Red	l	1	0.4873	C	D	b	r	2000	1	6	15	26-May-16	21	Red	k	0	0.5194	D	A	r	b	2000	1	6	15	26-May-16	22	Red	k	1	0.5434	C	B	r	b	2000	1	6	15	26-May-16	23	Red	l	1	0.4633	C	D	b	r	2000	1	6	15	26-May-16	24	Red	a	1	0.719	D	A	b	r	2000	1	6	15	26-May-16	25	Red	s	0	0.512	A	D	b	r	2000	1	6	15	26-May-16	26	Red	s	1	0.5528	B	A	r	b	2000	1	6	15	26-May-16	27	Red	s	0	0.5432	A	B	r	b	2000	1	6	15	26-May-16	28	Red	s	1	0.5197	B	A	r	b	2000	1	6	15	26-May-16	29	Red	l	1	0.4175	B	D	b	r	2000	1	6	15	26-May-16	30	Red	s	0	1.001	C	B	r	b	2000	1	6	15	26-May-16	31	Red	k	1	0.5545	C	B	r	b	2000	1	6	15	26-May-16	32	Red	s	1	0.5046	B	C	r	b	2000	1	6	15	26-May-16	1	blue	s	1	0.485	C	B	r	b	900	1	6	15	26-May-16	2	blue	s	1	0.4585	C	B	r	b	900	1	6	15	26-May-16	3	blue	s	1	0.4016	A	B	r	b	900	1	6	15	26-May-16	4	blue	NaN	99	0	C	B	b	r	900	1	6	15	26-May-16	5	blue	NaN	NaN	0	D	A	r	b	900	1	6	15	26-May-16	6	blue	s	1	0.5291	B	A	b	r	900	1	6	15	26-May-16	7	blue	l	1	0.5288	B	D	r	b	900	1	6	15	26-May-16	8	blue	a	1	0.5528	A	C	b	r	900	1	6	15	26-May-16	9	blue	l	1	0.4795	C	D	r	b	900	1	6	15	26-May-16	10	blue	a	1	0.5339	D	A	r	b	900	1	6	15	26-May-16	11	blue	l	1	0.463	D	A	b	r	900	1	6	15	26-May-16	12	blue	a	1	0.4698	A	C	b	r	900	1	6	15	26-May-16	13	blue	s	0	0.4928	B	A	r	b	900	1	6	15	26-May-16	14	blue	s	0	0.4592	C	A	r	b	900	1	6	15	26-May-16	15	blue	l	1	0.7449	C	D	r	b	900	1	6	15	26-May-16	16	blue	l	1	0.4816	D	C	b	r	900	1	6	15	26-May-16	17	blue	s	0	0.4486	A	C	r	b	900	1	6	15	26-May-16	18	blue	k	1	0.4478	B	C	r	b	900	1	6	15	26-May-16	19	blue	l	1	0.4634	A	D	r	b	900	1	6	15	26-May-16	20	blue	k	1	0.4231	C	B	b	r	900	1	6	15	26-May-16	21	blue	a	1	0.5178	D	A	r	b	900	1	6	15	26-May-16	22	blue	s	1	0.5018	D	B	r	b	900	1	6	15	26-May-16	23	blue	k	1	0.4608	B	C	r	b	900	1	6	15	26-May-16	24	blue	l	1	0.4366	B	D	r	b	900	1	6	15	26-May-16	25	blue	k	0	0.459	C	B	r	b	900	1	6	15	26-May-16	26	blue	k	1	0.4186	D	C	r	b	900	1	6	15	26-May-16	27	blue	l	0	0.3857	C	D	b	r	900	1	6	15	26-May-16	28	blue	l	0	0.4473	B	A	b	r	900	1	6	15	26-May-16	29	blue	s	1	0.5762	C	B	r	b	900	1	6	15	26-May-16	30	blue	s	0	0.5023	D	C	r	b	900	1	6	15	26-May-16	31	blue	a	0	0.3813	D	B	b	r	900	1	6	15	26-May-16	32	blue	a	1	0.4284	A	D	b	r	900	1	6	15	26-May-16	1	Red	k	1	0.4916	C	B	r	b	900	1	6	15	26-May-16	2	Red	l	1	0.4589	B	D	b	r	900	1	6	15	26-May-16	3	Red	s	1	0.4409	B	C	r	b	900	1	6	15	26-May-16	4	Red	a	1	0.4732	D	A	b	r	900	1	6	15	26-May-16	5	Red	l	1	0.5201	C	D	b	r	900	1	6	15	26-May-16	6	Red	s	1	0.4948	B	D	r	b	900	1	6	15	26-May-16	7	Red	l	1	0.4536	D	A	r	b	900	1	6	15	26-May-16	8	Red	a	1	0.4843	D	A	b	r	900	1	6	15	26-May-16	9	Red	k	1	0.5494	C	B	r	b	900	1	6	15	26-May-16	10	Red	s	1	0.4747	B	C	r	b	900	1	6	15	26-May-16	11	Red	k	1	0.5073	C	D	r	b	900	1	6	15	26-May-16	12	Red	k	1	0.5605	C	B	r	b	900	1	6	15	26-May-16	13	Red	a	0	0.4558	A	B	b	r	900	1	6	15	26-May-16	14	Red	l	1	0.4147	C	D	b	r	900	1	6	15	26-May-16	15	Red	s	0	0.462	A	B	r	b	900	1	6	15	26-May-16	16	Red	s	1	0.4302	D	B	b	r	900	1	6	15	26-May-16	17	Red	l	1	0.5898	D	C	r	b	900	1	6	15	26-May-16	18	Red	k	0	0.533	D	B	r	b	900	1	6	15	26-May-16	19	Red	a	1	0.4929	A	B	r	b	900	1	6	15	26-May-16	20	Red	a	1	0.4597	C	A	b	r	900	1	6	15	26-May-16	21	Red	k	1	0.4816	D	C	b	r	900	1	6	15	26-May-16	22	Red	a	1	0.489	B	A	b	r	900	1	6	15	26-May-16	23	Red	s	1	0.4952	B	A	r	b	900	1	6	15	26-May-16	24	Red	a	1	0.3595	A	C	r	b	900	1	6	15	26-May-16	25	Red	k	1	0.5101	C	B	r	b	900	1	6	15	26-May-16	26	Red	l	1	0.3806	D	C	r	b	900	1	6	15	26-May-16	27	Red	k	0	0.4594	B	C	r	b	900	1	6	15	26-May-16	28	Red	s	0	0.4109	A	C	b	r	900	1	6	15	26-May-16	29	Red	a	0	0.3946	D	A	r	b	900	1	6	15	26-May-16	30	Red	a	1	0.4099	B	A	b	r	900	1	6	15	26-May-16	31	Red	s	1	0.5448	A	B	b	r	900	1	6	15	26-May-16	32	Red	s	0	0.4238	B	C	b	r	900	1	6	15	26-May-16	1	blue	s	1	0.4954	D	B	r	b	900	1	6	15	26-May-16	2	blue	l	1	0.6065	D	A	b	r	900	1	6	15	26-May-16	3	blue	l	1	0.4766	A	D	r	b	900	1	6	15	26-May-16	4	blue	s	0	0.4455	C	A	b	r	900	1	6	15	26-May-16	5	blue	l	0	0.6832	C	B	b	r	900	1	6	15	26-May-16	6	blue	k	0	0.5886	D	B	r	b	900	1	6	15	26-May-16	7	blue	l	1	0.4183	C	D	r	b	900	1	6	15	26-May-16	8	blue	NaN	99	0	A	B	r	b	900	1	6	15	26-May-16	9	blue	NaN	NaN	0	C	D	b	r	900	1	6	15	26-May-16	10	blue	s	1	0.5181	D	B	r	b	900	1	6	15	26-May-16	11	blue	k	1	0.5085	D	C	r	b	900	1	6	15	26-May-16	12	blue	k	1	0.4999	D	C	r	b	900	1	6	15	26-May-16	13	blue	s	1	0.5066	B	C	b	r	900	1	6	15	26-May-16	14	blue	a	1	0.4332	A	C	b	r	900	1	6	15	26-May-16	15	blue	l	1	0.4964	C	D	r	b	900	1	6	15	26-May-16	16	blue	a	1	0.5283	C	A	r	b	900	1	6	15	26-May-16	17	blue	l	1	0.4882	D	A	b	r	900	1	6	15	26-May-16	18	blue	l	1	0.4942	D	C	b	r	900	1	6	15	26-May-16	19	blue	l	1	0.4202	D	B	b	r	900	1	6	15	26-May-16	20	blue	s	0	0.4529	C	A	r	b	900	1	6	15	26-May-16	21	blue	a	1	0.4755	B	A	r	b	900	1	6	15	26-May-16	22	blue	k	1	0.4497	C	D	b	r	900	1	6	15	26-May-16	23	blue	k	1	0.4744	C	A	b	r	900	1	6	15	26-May-16	24	blue	s	1	0.5699	A	B	r	b	900	1	6	15	26-May-16	25	blue	l	1	0.5762	C	D	r	b	900	1	6	15	26-May-16	26	blue	a	1	0.4814	A	D	b	r	900	1	6	15	26-May-16	27	blue	s	0	0.5753	C	B	b	r	900	1	6	15	26-May-16	28	blue	a	1	0.4399	D	A	r	b	900	1	6	15	26-May-16	29	blue	s	1	0.5106	C	B	r	b	900	1	6	15	26-May-16	30	blue	a	1	0.4869	B	A	r	b	900	1	6	15	26-May-16	31	blue	s	0	0.5402	A	D	b	r	900	1	6	15	26-May-16	32	blue	s	1	0.5402	A	B	r	b	900	1	6	15	26-May-16	1	Red	k	1	0.613	C	D	r	b	900	1	6	15	26-May-16	2	Red	s	1	0.4744	A	B	b	r	900	1	6	15	26-May-16	3	Red	a	1	0.5389	D	A	b	r	900	1	6	15	26-May-16	4	Red	s	0	0.4587	B	C	b	r	900	1	6	15	26-May-16	5	Red	a	1	0.369	A	D	r	b	900	1	6	15	26-May-16	6	Red	k	1	0.3435	A	C	b	r	900	1	6	15	26-May-16	7	Red	s	1	0.5377	B	D	r	b	900	1	6	15	26-May-16	8	Red	l	1	0.5194	D	A	r	b	900	1	6	15	26-May-16	9	Red	l	1	0.4396	D	A	r	b	900	1	6	15	26-May-16	10	Red	k	0	0.3739	C	A	b	r	900	1	6	15	26-May-16	11	Red	a	1	0.3976	C	A	b	r	900	1	6	15	26-May-16	12	Red	k	1	0.437	C	A	r	b	900	1	6	15	26-May-16	13	Red	l	1	0.4841	D	A	r	b	900	1	6	15	26-May-16	14	Red	s	1	0.4902	B	A	r	b	900	1	6	15	26-May-16	15	Red	l	0	0.699	C	A	b	r	900	1	6	15	26-May-16	16	Red	l	1	0.4499	B	D	b	r	900	1	6	15	26-May-16	17	Red	k	1	0.4632	B	C	b	r	900	1	6	15	26-May-16	18	Red	k	0	0.4479	D	B	r	b	900	1	6	15	26-May-16	19	Red	k	0	0.5264	B	D	b	r	900	1	6	15	26-May-16	20	Red	s	1	0.453	B	D	r	b	900	1	6	15	26-May-16	21	Red	l	0	0.4612	D	B	b	r	900	1	6	15	26-May-16	22	Red	NaN	99	0	A	B	b	r	900	1	6	15	26-May-16	23	Red	NaN	NaN	0	D	C	b	r	900	1	6	15	26-May-16	24	Red	s	1	0.5088	C	B	b	r	900	1	6	15	26-May-16	25	Red	a	1	0.444	D	A	b	r	900	1	6	15	26-May-16	26	Red	l	1	0.5384	B	D	b	r	900	1	6	15	26-May-16	27	Red	s	1	0.5136	C	B	b	r	900	1	6	15	26-May-16	28	Red	a	1	0.3434	A	B	r	b	900	1	6	15	26-May-16	29	Red	k	0	0.3927	C	D	b	r	900	1	6	15	26-May-16	30	Red	a	0	0.3506	C	B	r	b	900	1	6	15	26-May-16	31	Red	a	1	0.4463	A	C	r	b	900	1	6	15	26-May-16	32	Red	k	1	0.4055	A	C	b	r	900	1	6	15	26-May-16	1	blue	l	1	0.508	A	D	r	b	2000	1	6	15	26-May-16	2	blue	k	1	0.4817	C	D	b	r	2000	1	6	15	26-May-16	3	blue	l	1	0.4907	D	A	b	r	2000	1	6	15	26-May-16	4	blue	a	1	0.5617	D	A	r	b	2000	1	6	15	26-May-16	5	blue	a	1	0.4021	A	C	b	r	2000	1	6	15	26-May-16	6	blue	l	1	0.4494	C	D	r	b	2000	1	6	15	26-May-16	7	blue	l	1	0.4259	B	D	r	b	2000	1	6	15	26-May-16	8	blue	s	1	0.6017	A	B	r	b	2000	1	6	15	26-May-16	9	blue	k	1	0.5462	C	B	b	r	2000	1	6	15	26-May-16	10	blue	a	1	0.6267	B	A	r	b	2000	1	6	15	26-May-16	11	blue	a	1	0.4994	B	A	r	b	2000	1	6	15	26-May-16	12	blue	k	1	0.4659	D	C	r	b	2000	1	6	15	26-May-16	13	blue	s	0	0.5456	C	A	r	b	2000	1	6	15	26-May-16	14	blue	k	0	0.4741	B	C	b	r	2000	1	6	15	26-May-16	15	blue	k	1	0.5376	C	D	b	r	2000	1	6	15	26-May-16	16	blue	s	1	0.5136	D	B	r	b	2000	1	6	15	26-May-16	17	blue	k	1	0.482	C	B	b	r	2000	1	6	15	26-May-16	18	blue	k	1	0.5705	A	C	r	b	2000	1	6	15	26-May-16	19	blue	s	1	0.5207	B	C	b	r	2000	1	6	15	26-May-16	20	blue	s	1	0.4893	D	B	r	b	2000	1	6	15	26-May-16	21	blue	a	1	0.4979	B	A	r	b	2000	1	6	15	26-May-16	22	blue	l	1	0.4899	D	A	b	r	2000	1	6	15	26-May-16	23	blue	s	0	0.5151	D	C	r	b	2000	1	6	15	26-May-16	24	blue	l	1	0.5932	B	D	r	b	2000	1	6	15	26-May-16	25	blue	l	1	0.6351	C	D	r	b	2000	1	6	15	26-May-16	26	blue	a	1	0.5855	A	B	b	r	2000	1	6	15	26-May-16	27	blue	l	1	0.5304	D	B	b	r	2000	1	6	15	26-May-16	28	blue	s	1	0.5299	D	B	r	b	2000	1	6	15	26-May-16	29	blue	s	1	0.5385	B	A	b	r	2000	1	6	15	26-May-16	30	blue	k	1	0.4997	D	C	r	b	2000	1	6	15	26-May-16	31	blue	k	0	0.5135	B	D	b	r	2000	1	6	15	26-May-16	32	blue	a	1	0.7786	B	A	r	b	2000	1	6	15	26-May-16	1	Red	s	1	0.604	B	C	r	b	2000	1	6	15	26-May-16	2	Red	l	1	0.5565	D	B	r	b	2000	1	6	15	26-May-16	3	Red	s	1	0.5162	A	B	b	r	2000	1	6	15	26-May-16	4	Red	l	1	0.5013	C	D	b	r	2000	1	6	15	26-May-16	5	Red	a	1	0.502	C	A	b	r	2000	1	6	15	26-May-16	6	Red	a	1	0.4613	B	A	b	r	2000	1	6	15	26-May-16	7	Red	a	1	0.4459	D	A	b	r	2000	1	6	15	26-May-16	8	Red	k	1	0.5255	C	B	r	b	2000	1	6	15	26-May-16	9	Red	l	1	0.4775	D	A	r	b	2000	1	6	15	26-May-16	10	Red	l	1	0.5263	C	D	b	r	2000	1	6	15	26-May-16	11	Red	s	1	0.5491	A	B	b	r	2000	1	6	15	26-May-16	12	Red	k	1	0.5175	C	A	r	b	2000	1	6	15	26-May-16	13	Red	l	1	0.5008	C	D	b	r	2000	1	6	15	26-May-16	14	Red	s	1	0.5333	A	B	b	r	2000	1	6	15	26-May-16	15	Red	a	1	0.566	A	B	r	b	2000	1	6	15	26-May-16	16	Red	l	1	0.5262	D	C	r	b	2000	1	6	15	26-May-16	17	Red	k	1	0.5033	C	B	r	b	2000	1	6	15	26-May-16	18	Red	a	1	0.4853	D	A	b	r	2000	1	6	15	26-May-16	19	Red	k	0	0.4781	B	A	r	b	2000	1	6	15	26-May-16	20	Red	a	1	0.3594	A	B	r	b	2000	1	6	15	26-May-16	21	Red	a	1	0.5431	B	A	b	r	2000	1	6	15	26-May-16	22	Red	k	1	0.7186	A	C	b	r	2000	1	6	15	26-May-16	23	Red	s	1	0.552	B	A	r	b	2000	1	6	15	26-May-16	24	Red	a	1	0.6071	A	C	r	b	2000	1	6	15	26-May-16	25	Red	k	1	0.671	D	C	b	r	2000	1	6	15	26-May-16	26	Red	l	1	0.5678	C	D	b	r	2000	1	6	15	26-May-16	27	Red	k	1	0.5186	B	C	b	r	2000	1	6	15	26-May-16	28	Red	k	1	0.5762	D	C	b	r	2000	1	6	15	26-May-16	29	Red	l	1	0.5046	D	B	r	b	2000	1	6	15	26-May-16	30	Red	s	1	0.4729	D	B	b	r	2000	1	6	15	26-May-16	31	Red	k	1	0.455	A	C	b	r	2000	1	6	15	26-May-16	32	Red	s	1	0.504	D	B	b	r	2000	1	6	15	26-May-16	1	blue	s	1	0.5068	C	B	r	b	900	1	6	15	26-May-16	2	blue	l	1	0.4569	B	D	r	b	900	1	6	15	26-May-16	3	blue	a	1	0.5277	D	A	r	b	900	1	6	15	26-May-16	4	blue	s	0	0.6454	C	A	b	r	900	1	6	15	26-May-16	5	blue	a	1	0.4764	A	D	b	r	900	1	6	15	26-May-16	6	blue	s	1	0.4846	C	B	r	b	900	1	6	15	26-May-16	7	blue	s	1	0.4774	B	C	b	r	900	1	6	15	26-May-16	8	blue	k	0	0.4433	D	B	b	r	900	1	6	15	26-May-16	9	blue	s	1	0.4652	A	B	r	b	900	1	6	15	26-May-16	10	blue	k	0	0.4655	B	D	b	r	900	1	6	15	26-May-16	11	blue	s	0	0.489	A	C	r	b	900	1	6	15	26-May-16	12	blue	s	1	0.471	D	B	r	b	900	1	6	15	26-May-16	13	blue	k	1	0.5104	A	C	r	b	900	1	6	15	26-May-16	14	blue	a	1	0.4377	A	C	b	r	900	1	6	15	26-May-16	15	blue	a	1	0.3725	A	C	b	r	900	1	6	15	26-May-16	16	blue	l	0	0.4442	C	D	b	r	900	1	6	15	26-May-16	17	blue	a	1	0.3783	A	D	b	r	900	1	6	15	26-May-16	18	blue	l	1	0.4654	D	B	b	r	900	1	6	15	26-May-16	19	blue	l	1	0.464	D	C	b	r	900	1	6	15	26-May-16	20	blue	l	1	0.4167	D	A	b	r	900	1	6	15	26-May-16	21	blue	k	0	0.7926	C	B	r	b	900	1	6	15	26-May-16	22	blue	a	1	0.6002	A	D	b	r	900	1	6	15	26-May-16	23	blue	l	1	0.4711	C	D	r	b	900	1	6	15	26-May-16	24	blue	k	1	0.4695	C	D	b	r	900	1	6	15	26-May-16	25	blue	k	0	0.4048	D	B	b	r	900	1	6	15	26-May-16	26	blue	k	1	0.4355	D	C	r	b	900	1	6	15	26-May-16	27	blue	l	1	0.4908	D	C	b	r	900	1	6	15	26-May-16	28	blue	k	0	0.3862	D	A	r	b	900	1	6	15	26-May-16	29	blue	k	0	0.3702	C	A	r	b	900	1	6	15	26-May-16	30	blue	k	1	0.4894	B	C	r	b	900	1	6	15	26-May-16	31	blue	l	0	0.4486	B	C	b	r	900	1	6	15	26-May-16	32	blue	s	0	0.4058	C	D	b	r	900	1	6	15	26-May-16	1	Red	l	1	0.5131	D	C	r	b	900	1	6	15	26-May-16	2	Red	s	0	0.5671	C	B	r	b	900	1	6	15	26-May-16	3	Red	k	0	0.4622	B	D	r	b	900	1	6	15	26-May-16	4	Red	s	1	0.5743	A	B	b	r	900	1	6	15	26-May-16	5	Red	a	1	0.4518	A	C	r	b	900	1	6	15	26-May-16	6	Red	s	1	0.4996	A	B	b	r	900	1	6	15	26-May-16	7	Red	k	1	0.4682	B	C	b	r	900	1	6	15	26-May-16	8	Red	s	1	0.5059	A	B	b	r	900	1	6	15	26-May-16	9	Red	s	0	0.425	B	D	b	r	900	1	6	15	26-May-16	10	Red	a	1	0.4149	D	A	b	r	900	1	6	15	26-May-16	11	Red	k	1	0.502	A	C	b	r	900	1	6	15	26-May-16	12	Red	l	1	0.4933	C	D	b	r	900	1	6	15	26-May-16	13	Red	s	1	0.532	B	A	r	b	900	1	6	15	26-May-16	14	Red	k	1	0.5096	C	D	r	b	900	1	6	15	26-May-16	15	Red	a	0	0.4591	A	D	b	r	900	1	6	15	26-May-16	16	Red	a	1	0.4288	A	C	r	b	900	1	6	15	26-May-16	17	Red	s	0	0.4259	A	C	b	r	900	1	6	15	26-May-16	18	Red	l	1	0.5152	B	D	b	r	900	1	6	15	26-May-16	19	Red	l	1	0.5283	C	D	b	r	900	1	6	15	26-May-16	20	Red	s	1	0.4638	B	D	r	b	900	1	6	15	26-May-16	21	Red	s	1	0.5201	B	D	r	b	900	1	6	15	26-May-16	22	Red	a	1	0.3443	A	C	r	b	900	1	6	15	26-May-16	23	Red	s	1	0.543	B	D	r	b	900	1	6	15	26-May-16	24	Red	s	0	0.4618	C	A	r	b	900	1	6	15	26-May-16	25	Red	k	1	0.4683	B	C	b	r	900	1	6	15	26-May-16	26	Red	s	0	0.4525	D	A	r	b	900	1	6	15	26-May-16	27	Red	a	1	0.3616	A	C	r	b	900	1	6	15	26-May-16	28	Red	s	0	0.4983	D	A	b	r	900	1	6	15	26-May-16	29	Red	a	1	0.449	A	D	r	b	900	1	6	15	26-May-16	30	Red	s	0	0.4323	D	C	r	b	900	1	6	15	26-May-16	31	Red	a	1	0.3903	A	B	r	b	900	1	6	15	26-May-16	32	Red	k	1	0.4372	C	A	r	b	900	1	6	15	26-May-16	1	blue	l	1	0.7444	C	D	r	b	2000	1	6	15	26-May-16	2	blue	k	0	0.6159	C	B	r	b	2000	1	6	15	26-May-16	3	blue	l	1	0.4813	D	A	b	r	2000	1	6	15	26-May-16	4	blue	s	0	0.4565	A	D	b	r	2000	1	6	15	26-May-16	5	blue	s	1	0.4567	B	A	b	r	2000	1	6	15	26-May-16	6	blue	l	1	0.7038	D	A	b	r	2000	1	6	15	26-May-16	7	blue	k	1	0.5282	C	A	b	r	2000	1	6	15	26-May-16	8	blue	l	1	0.457	D	B	b	r	2000	1	6	15	26-May-16	9	blue	a	1	0.3855	A	C	b	r	2000	1	6	15	26-May-16	10	blue	s	0	0.7217	D	A	r	b	2000	1	6	15	26-May-16	11	blue	s	1	0.5939	A	B	r	b	2000	1	6	15	26-May-16	12	blue	s	1	0.4973	C	B	r	b	2000	1	6	15	26-May-16	13	blue	k	1	0.4498	C	A	b	r	2000	1	6	15	26-May-16	14	blue	s	1	0.4907	B	C	b	r	2000	1	6	15	26-May-16	15	blue	l	1	0.4816	D	B	b	r	2000	1	6	15	26-May-16	16	blue	s	0	0.529	C	A	b	r	2000	1	6	15	26-May-16	17	blue	s	0	0.6093	D	A	r	b	2000	1	6	15	26-May-16	18	blue	l	1	0.4432	C	D	r	b	2000	1	6	15	26-May-16	19	blue	s	1	0.5876	B	C	b	r	2000	1	6	15	26-May-16	20	blue	a	1	0.5299	A	D	b	r	2000	1	6	15	26-May-16	21	blue	k	1	0.3857	C	B	b	r	2000	1	6	15	26-May-16	22	blue	k	1	0.4981	C	B	b	r	2000	1	6	15	26-May-16	23	blue	s	1	0.5	A	B	r	b	2000	1	6	15	26-May-16	24	blue	a	1	0.6359	D	A	r	b	2000	1	6	15	26-May-16	25	blue	s	1	0.5464	B	A	b	r	2000	1	6	15	26-May-16	26	blue	a	1	0.4759	A	B	b	r	2000	1	6	15	26-May-16	27	blue	k	1	0.5232	C	B	b	r	2000	1	6	15	26-May-16	28	blue	l	1	0.5145	D	C	b	r	2000	1	6	15	26-May-16	29	blue	k	1	0.4988	C	D	b	r	2000	1	6	15	26-May-16	30	blue	k	1	0.5239	A	C	r	b	2000	1	6	15	26-May-16	31	blue	a	1	0.4593	C	A	r	b	2000	1	6	15	26-May-16	32	blue	l	1	0.5393	D	B	b	r	2000	1	6	15	26-May-16	1	Red	a	1	0.5401	A	D	r	b	2000	1	6	15	26-May-16	2	Red	l	1	0.5236	D	C	r	b	2000	1	6	15	26-May-16	3	Red	s	1	0.5879	C	B	b	r	2000	1	6	15	26-May-16	4	Red	s	1	0.5328	B	C	r	b	2000	1	6	15	26-May-16	5	Red	s	0	0.4923	A	C	b	r	2000	1	6	15	26-May-16	6	Red	s	1	0.5255	B	A	r	b	2000	1	6	15	26-May-16	7	Red	a	1	0.5086	C	A	b	r	2000	1	6	15	26-May-16	8	Red	k	1	0.542	C	A	r	b	2000	1	6	15	26-May-16	9	Red	s	1	0.5481	A	B	b	r	2000	1	6	15	26-May-16	10	Red	a	1	0.5175	D	A	b	r	2000	1	6	15	26-May-16	11	Red	a	1	0.5488	B	A	b	r	2000	1	6	15	26-May-16	12	Red	l	1	0.733	D	A	r	b	2000	1	6	15	26-May-16	13	Red	a	1	0.5425	A	D	r	b	2000	1	6	15	26-May-16	14	Red	k	1	0.4947	C	D	r	b	2000	1	6	15	26-May-16	15	Red	l	1	0.461	D	A	r	b	2000	1	6	15	26-May-16	16	Red	l	1	0.4706	D	A	r	b	2000	1	6	15	26-May-16	17	Red	s	0	0.5893	C	A	r	b	2000	1	6	15	26-May-16	18	Red	s	1	0.5337	B	C	r	b	2000	1	6	15	26-May-16	19	Red	s	1	0.519	B	A	r	b	2000	1	6	15	26-May-16	20	Red	l	1	0.4553	A	D	b	r	2000	1	6	15	26-May-16	21	Red	a	1	0.5268	A	C	r	b	2000	1	6	15	26-May-16	22	Red	NaN	NaN	0	C	B	b	r	2000	1	6	15	26-May-16	23	Red	k	1	0.5757	A	C	b	r	2000	1	6	15	26-May-16	24	Red	a	1	0.4401	B	A	b	r	2000	1	6	15	26-May-16	25	Red	k	1	0.6711	D	C	b	r	2000	1	6	15	26-May-16	26	Red	s	1	0.4705	B	D	r	b	2000	1	6	15	26-May-16	27	Red	s	0	0.4868	A	C	b	r	2000	1	6	15	26-May-16	28	Red	a	1	0.4951	D	A	b	r	2000	1	6	15	26-May-16	29	Red	k	1	0.4791	C	B	r	b	2000	1	6	15	26-May-16	30	Red	l	1	0.4793	D	A	r	b	2000	1	6	15	26-May-16	31	Red	l	1	0.4892	B	D	b	r	2000	1	6	15	26-May-16	32	Red	l	1	0.5128	D	B	r	b	2000	1	6	15	26-May-16	1	blue	l	1	0.4691	B	D	r	b	900	1	6	15	26-May-16	2	blue	k	1	0.4757	C	D	b	r	900	1	6	15	26-May-16	3	blue	k	1	0.475	A	C	r	b	900	1	6	15	26-May-16	4	blue	l	1	0.4661	D	B	b	r	900	1	6	15	26-May-16	5	blue	s	1	0.4477	B	C	b	r	900	1	6	15	26-May-16	6	blue	a	1	0.4323	C	A	r	b	900	1	6	15	26-May-16	7	blue	NaN	99	0	B	D	b	r	900	1	6	15	26-May-16	8	blue	NaN	99	0	A	C	b	r	900	1	6	15	26-May-16	9	blue	NaN	99	0	D	C	b	r	900	1	6	15	26-May-16	10	blue	NaN	NaN	0	B	D	r	b	900	1	6	15	26-May-16	11	blue	s	0	0.6353	B	A	r	b	900	1	6	15	26-May-16	12	blue	k	1	0.5461	C	A	b	r	900	1	6	15	26-May-16	13	blue	a	1	0.3917	A	D	b	r	900	1	6	15	26-May-16	14	blue	s	1	0.5109	B	C	b	r	900	1	6	15	26-May-16	15	blue	l	1	0.4066	D	C	b	r	900	1	6	15	26-May-16	16	blue	s	0	0.4521	B	C	r	b	900	1	6	15	26-May-16	17	blue	a	1	0.3729	A	D	b	r	900	1	6	15	26-May-16	18	blue	a	1	0.5631	A	D	b	r	900	1	6	15	26-May-16	19	blue	s	1	0.4726	D	B	r	b	900	1	6	15	26-May-16	20	blue	k	1	0.5122	C	B	b	r	900	1	6	15	26-May-16	21	blue	k	1	0.4971	C	D	b	r	900	1	6	15	26-May-16	22	blue	a	1	0.4957	B	A	r	b	900	1	6	15	26-May-16	23	blue	k	0	0.4718	D	A	b	r	900	1	6	15	26-May-16	24	blue	k	1	0.5022	C	B	b	r	900	1	6	15	26-May-16	25	blue	l	1	0.5334	A	D	r	b	900	1	6	15	26-May-16	26	blue	k	1	0.5236	C	A	b	r	900	1	6	15	26-May-16	27	blue	l	1	0.4673	D	C	b	r	900	1	6	15	26-May-16	28	blue	a	1	0.5072	D	A	r	b	900	1	6	15	26-May-16	29	blue	s	1	0.5542	B	A	b	r	900	1	6	15	26-May-16	30	blue	s	1	0.482	B	C	b	r	900	1	6	15	26-May-16	31	blue	l	0	0.5782	B	D	b	r	900	1	6	15	26-May-16	32	blue	s	1	0.5944	C	B	r	b	900	1	6	15	26-May-16	1	Red	k	1	0.4903	B	C	b	r	900	1	6	15	26-May-16	2	Red	l	1	0.4882	D	A	r	b	900	1	6	15	26-May-16	3	Red	l	1	0.4959	D	B	r	b	900	1	6	15	26-May-16	4	Red	l	1	0.4454	D	B	r	b	900	1	6	15	26-May-16	5	Red	a	1	0.4379	C	A	b	r	900	1	6	15	26-May-16	6	Red	s	1	0.3898	B	C	r	b	900	1	6	15	26-May-16	7	Red	k	1	0.397	C	A	r	b	900	1	6	15	26-May-16	8	Red	a	1	0.45	A	D	r	b	900	1	6	15	26-May-16	9	Red	s	0	0.8196	A	C	r	b	900	1	6	15	26-May-16	10	Red	k	1	0.5533	B	C	b	r	900	1	6	15	26-May-16	11	Red	NaN	99	0	C	B	b	r	900	1	6	15	26-May-16	12	Red	NaN	NaN	0	C	D	b	r	900	1	6	15	26-May-16	13	Red	a	0	0.4189	B	C	r	b	900	1	6	15	26-May-16	14	Red	a	1	0.4034	A	C	r	b	900	1	6	15	26-May-16	15	Red	s	0	0.442	B	A	b	r	900	1	6	15	26-May-16	16	Red	l	1	0.4567	C	D	b	r	900	1	6	15	26-May-16	17	Red	s	0	0.471	B	C	b	r	900	1	6	15	26-May-16	18	Red	k	1	0.5176	C	B	r	b	900	1	6	15	26-May-16	19	Red	a	0	0.3986	B	D	b	r	900	1	6	15	26-May-16	20	Red	l	1	0.4942	D	C	r	b	900	1	6	15	26-May-16	21	Red	k	1	0.4617	B	C	b	r	900	1	6	15	26-May-16	22	Red	NaN	99	0	C	B	b	r	900	1	6	15	26-May-16	23	Red	NaN	NaN	0	B	A	b	r	900	1	6	15	26-May-16	24	Red	a	1	0.5331	D	A	b	r	900	1	6	15	26-May-16	25	Red	a	0	0.4918	B	A	r	b	900	1	6	15	26-May-16	26	Red	k	0	0.5071	D	B	b	r	900	1	6	15	26-May-16	27	Red	l	1	0.7615	D	A	r	b	900	1	6	15	26-May-16	28	Red	s	1	0.6007	B	C	r	b	900	1	6	15	26-May-16	29	Red	k	1	0.4645	D	C	b	r	900	1	6	15	26-May-16	30	Red	k	0	0.4635	D	B	b	r	900	1	6	15	26-May-16	31	Red	a	1	0.3746	A	B	r	b	900	1	6	15	26-May-16	32	Red	s	0	0.4133	C	D	r	b	900	1	6	16	27-May-16	1	Red	NaN	NaN	0	D	B	r	b	2000	1	6	16	27-May-16	2	Red	NaN	NaN	0	D	A	r	b	2000	1	6	16	27-May-16	3	Red	NaN	NaN	0	D	A	b	r	2000	1	6	16	27-May-16	4	Red	NaN	NaN	0	D	C	r	b	2000	1	6	16	27-May-16	5	Red	NaN	NaN	0	B	C	b	r	2000	1	6	16	27-May-16	6	Red	NaN	NaN	0	C	B	b	r	2000	1	6	16	27-May-16	7	Red	NaN	NaN	0	A	B	b	r	2000	1	6	1